difficulty_level,num_session,num_rand,predataloop.thisRepN,predataloop.thisTrialN,predataloop.thisN,predataloop.thisIndex,level_loop.thisRepN,level_loop.thisTrialN,level_loop.thisN,level_loop.thisIndex,trial_loop.thisRepN,trial_loop.thisTrialN,trial_loop.thisN,trial_loop.thisIndex,ratings.thisRepN,ratings.thisTrialN,ratings.thisN,ratings.thisIndex,start_time_stamp,correct_key,stim_start,press_key_time,stim_end,key_resp.keys,key_resp.corr,key_resp.rt,accuracy,diff,rating_effort.response,rating_difficulty.response,rating_attention.response,exit.keys,exit.rt,participant,replicate,date,expName,psychopyVersion,frameRate,
low,1,10,,,,,0,0,0,0,0,0,0,0,,,,,1663059956522,right,4.250513332954142,6.180786374956369,6.764047292002942,right,1,1.8909354589995928,,,,,,,,samuel,001,2022_Sep_13_1705,arithmetics_exp,2021.2.3,60.3140401147677,
low,1,10,,,,,0,0,0,0,1,0,1,0,,,,,,right,7.213943124981597,8.647576249961276,9.732500082987826,right,1,1.3931823330349289,,,,,,,,samuel,001,2022_Sep_13_1705,arithmetics_exp,2021.2.3,60.3140401147677,
low,1,10,,,,,0,0,0,0,2,0,2,0,,,,,,right,10.232804916973691,11.135703499952797,12.754336082958616,right,1,0.870851167012006,,,,,,,,samuel,001,2022_Sep_13_1705,arithmetics_exp,2021.2.3,60.3140401147677,
low,1,10,,,,,0,0,0,0,3,0,3,0,,,,,,left,13.19946508295834,14.098533582990058,15.713441208004951,left,1,0.8633642920176499,,,,,,,,samuel,001,2022_Sep_13_1705,arithmetics_exp,2021.2.3,60.3140401147677,
low,1,10,,,,,0,0,0,0,4,0,4,0,,,,,,left,16.213640166970436,17.262332999962382,18.7326702499995,left,1,1.01869366702158,,,,,,,,samuel,001,2022_Sep_13_1705,arithmetics_exp,2021.2.3,60.3140401147677,
low,1,10,,,,,0,0,0,0,5,0,5,0,,,,,,right,19.18201049999334,20.162123166956007,21.70066912495531,right,1,0.9473002500017174,,,,,,,,samuel,001,2022_Sep_13_1705,arithmetics_exp,2021.2.3,60.3140401147677,
low,1,10,,,,,0,0,0,0,6,0,6,0,,,,,,right,22.19910920795519,23.547221291984897,24.714115916984156,right,1,1.307312874996569,,,,,,,,samuel,001,2022_Sep_13_1705,arithmetics_exp,2021.2.3,60.3140401147677,
low,1,10,,,,,0,0,0,0,7,0,7,0,,,,,,right,25.213936124986503,26.180515874992125,27.731809041986708,right,1,0.930696249997709,,,,,,,,samuel,001,2022_Sep_13_1705,arithmetics_exp,2021.2.3,60.3140401147677,
low,1,10,,,,,0,0,0,0,8,0,8,0,,,,,,right,28.199040749983396,29.147506749955937,30.71374516695505,right,1,0.9231357499957085,,,,,,,,samuel,001,2022_Sep_13_1705,arithmetics_exp,2021.2.3,60.3140401147677,
low,1,10,,,,,0,0,0,0,9,0,9,0,,,,,,left,31.182106332969852,32.24709699995583,33.70043662498938,left,1,1.023651333001908,,,,,,,,samuel,001,2022_Sep_13_1705,arithmetics_exp,2021.2.3,60.3140401147677,
low,1,10,,,,,0,0,0,0,,,,,0,0,0,0,,,,,,,,,100.0,low,4.0,None,None,,,samuel,001,2022_Sep_13_1705,arithmetics_exp,2021.2.3,60.3140401147677,
low,1,10,,,,,0,0,0,0,,,,,1,0,1,0,,,,,,,,,,,None,1.0,None,,,samuel,001,2022_Sep_13_1705,arithmetics_exp,2021.2.3,60.3140401147677,
low,1,10,,,,,0,0,0,0,,,,,2,0,2,0,,,,,,,,,,,None,None,4.0,,,samuel,001,2022_Sep_13_1705,arithmetics_exp,2021.2.3,60.3140401147677,
low,1,10,,,,,0,0,0,0,,,,,,,,,,,,,,,,,,,,,,,,samuel,001,2022_Sep_13_1705,arithmetics_exp,2021.2.3,60.3140401147677,
low,1,10,,,,,0,1,1,1,0,0,0,0,,,,,,left,43.48110104195075,44.47957091697026,45.979983625002205,right,0,0.9578689159825444,,,,,,,,samuel,001,2022_Sep_13_1705,arithmetics_exp,2021.2.3,60.3140401147677,
low,1,10,,,,,0,1,1,1,1,0,1,0,,,,,,left,46.47963699995307,47.72982754197437,48.97984012495726,left,1,1.2235523750423454,,,,,,,,samuel,001,2022_Sep_13_1705,arithmetics_exp,2021.2.3,60.3140401147677,
low,1,10,,,,,0,1,1,1,2,0,2,0,,,,,,left,49.446766957989894,50.24609324999619,51.94702604197664,left,1,0.7696710829623044,,,,,,,,samuel,001,2022_Sep_13_1705,arithmetics_exp,2021.2.3,60.3140401147677,
low,1,10,,,,,0,1,1,1,3,0,3,0,,,,,,left,52.430476082954556,53.147321874974295,54.930003832967486,left,1,0.6821618330432102,,,,,,,,samuel,001,2022_Sep_13_1705,arithmetics_exp,2021.2.3,60.3140401147677,
low,1,10,,,,,0,1,1,1,4,0,4,0,,,,,,right,55.362556291976944,56.34620062500471,57.8628476249869,right,1,0.9478261669864878,,,,,,,,samuel,001,2022_Sep_13_1705,arithmetics_exp,2021.2.3,60.3140401147677,
low,1,10,,,,,0,1,1,1,5,0,5,0,,,,,,right,58.362528208002914,59.729902416991536,60.87973141699331,right,1,1.341231082973536,,,,,,,,samuel,001,2022_Sep_13_1705,arithmetics_exp,2021.2.3,60.3140401147677,
low,1,10,,,,,0,1,1,1,6,0,6,0,,,,,,right,61.4309124169522,62.37948037497699,63.946967708005104,right,1,0.9296784170437604,,,,,,,,samuel,001,2022_Sep_13_1705,arithmetics_exp,2021.2.3,60.3140401147677,
low,1,10,,,,,0,1,1,1,7,0,7,0,,,,,,left,64.39625612495001,65.49602462496841,66.89686195796821,left,1,1.0679835840128362,,,,,,,,samuel,001,2022_Sep_13_1705,arithmetics_exp,2021.2.3,60.3140401147677,
low,1,10,,,,,0,1,1,1,8,0,8,0,,,,,,right,67.36259583296487,68.33063029195182,69.87991141696693,right,1,0.932160374999512,,,,,,,,samuel,001,2022_Sep_13_1705,arithmetics_exp,2021.2.3,60.3140401147677,
low,1,10,,,,,0,1,1,1,9,0,9,0,,,,,,right,70.29636016697623,71.33025166695006,72.79661437496543,right,1,1.0072250830125995,,,,,,,,samuel,001,2022_Sep_13_1705,arithmetics_exp,2021.2.3,60.3140401147677,
low,1,10,,,,,0,1,1,1,,,,,0,0,0,0,,,,,,,,,90.0,low,4.0,None,None,,,samuel,001,2022_Sep_13_1705,arithmetics_exp,2021.2.3,60.3140401147677,
low,1,10,,,,,0,1,1,1,,,,,1,0,1,0,,,,,,,,,,,None,1.0,None,,,samuel,001,2022_Sep_13_1705,arithmetics_exp,2021.2.3,60.3140401147677,
low,1,10,,,,,0,1,1,1,,,,,2,0,2,0,,,,,,,,,,,None,None,4.0,,,samuel,001,2022_Sep_13_1705,arithmetics_exp,2021.2.3,60.3140401147677,
low,1,10,,,,,0,1,1,1,,,,,,,,,,,,,,,,,,,,,,,,samuel,001,2022_Sep_13_1705,arithmetics_exp,2021.2.3,60.3140401147677,
low,1,10,,,,,0,2,2,2,0,0,0,0,,,,,,right,80.798079375003,81.73317462496925,83.29804266698193,right,1,0.9065320410300046,,,,,,,,samuel,001,2022_Sep_13_1705,arithmetics_exp,2021.2.3,60.3140401147677,
low,1,10,,,,,0,2,2,2,1,0,1,0,,,,,,left,83.73023741698125,85.12980162497843,86.23341495799832,left,1,1.3659328329958953,,,,,,,,samuel,001,2022_Sep_13_1705,arithmetics_exp,2021.2.3,60.3140401147677,
low,1,10,,,,,0,2,2,2,2,0,2,0,,,,,,right,86.64711333299056,87.51161320798565,89.14693620795151,right,1,0.833426375000272,,,,,,,,samuel,001,2022_Sep_13_1705,arithmetics_exp,2021.2.3,60.3140401147677,
low,1,10,,,,,0,2,2,2,3,0,3,0,,,,,,right,89.6472319169552,90.61197591695236,92.14666679198854,right,1,0.9374843750265427,,,,,,,,samuel,001,2022_Sep_13_1705,arithmetics_exp,2021.2.3,60.3140401147677,
low,1,10,,,,,0,2,2,2,4,0,4,0,,,,,,right,92.64716120797675,93.929400916968,95.14696499996353,right,1,1.2497647080454044,,,,,,,,samuel,001,2022_Sep_13_1705,arithmetics_exp,2021.2.3,60.3140401147677,
low,1,10,,,,,0,2,2,2,5,0,5,0,,,,,,left,95.64735837496119,96.49606029200368,98.14714570797514,left,1,0.8253593340050429,,,,,,,,samuel,001,2022_Sep_13_1705,arithmetics_exp,2021.2.3,60.3140401147677,
low,1,10,,,,,0,2,2,2,6,0,6,0,,,,,,left,98.68009424995398,99.41197691700654,101.18031591695035,left,1,0.7035621670074761,,,,,,,,samuel,001,2022_Sep_13_1705,arithmetics_exp,2021.2.3,60.3140401147677,
low,1,10,,,,,0,2,2,2,7,0,7,0,,,,,,right,101.62999295798363,102.52854358300101,104.13268787495326,right,1,0.8727794170263223,,,,,,,,samuel,001,2022_Sep_13_1705,arithmetics_exp,2021.2.3,60.3140401147677,
low,1,10,,,,,0,2,2,2,8,0,8,0,,,,,,left,104.63014779199148,105.57987774995854,107.13002916699043,left,1,0.9144642500323243,,,,,,,,samuel,001,2022_Sep_13_1705,arithmetics_exp,2021.2.3,60.3140401147677,
low,1,10,,,,,0,2,2,2,9,0,9,0,,,,,,left,107.59560962498654,108.32974575000117,110.11338829196757,left,1,0.7014024579548277,,,,,,,,samuel,001,2022_Sep_13_1705,arithmetics_exp,2021.2.3,60.3140401147677,
low,1,10,,,,,0,2,2,2,,,,,0,0,0,0,,,,,,,,,100.0,low,4.0,None,None,,,samuel,001,2022_Sep_13_1705,arithmetics_exp,2021.2.3,60.3140401147677,
low,1,10,,,,,0,2,2,2,,,,,1,0,1,0,,,,,,,,,,,None,1.0,None,,,samuel,001,2022_Sep_13_1705,arithmetics_exp,2021.2.3,60.3140401147677,
low,1,10,,,,,0,2,2,2,,,,,2,0,2,0,,,,,,,,,,,None,None,4.0,,,samuel,001,2022_Sep_13_1705,arithmetics_exp,2021.2.3,60.3140401147677,
low,1,10,,,,,0,2,2,2,,,,,,,,,,,,,,,,,,,,,,,,samuel,001,2022_Sep_13_1705,arithmetics_exp,2021.2.3,60.3140401147677,
low,1,10,,,,,0,3,3,3,0,0,0,0,,,,,,left,118.86348766699666,119.84565570799168,121.363547041954,left,1,0.9531919999863021,,,,,,,,samuel,001,2022_Sep_13_1705,arithmetics_exp,2021.2.3,60.3140401147677,
low,1,10,,,,,0,3,3,3,1,0,1,0,,,,,,right,121.81388037500437,122.64515779196518,124.33014245796949,right,1,0.8018825420294888,,,,,,,,samuel,001,2022_Sep_13_1705,arithmetics_exp,2021.2.3,60.3140401147677,
low,1,10,,,,,0,3,3,3,2,0,2,0,,,,,,right,124.78005033300724,125.93061879195739,127.27995016699424,right,1,1.1163549999473616,,,,,,,,samuel,001,2022_Sep_13_1705,arithmetics_exp,2021.2.3,60.3140401147677,
low,1,10,,,,,0,3,3,3,3,0,3,0,,,,,,left,127.74618658295367,128.6797417079797,130.26329508295748,left,1,0.90298570797313,,,,,,,,samuel,001,2022_Sep_13_1705,arithmetics_exp,2021.2.3,60.3140401147677,
low,1,10,,,,,0,3,3,3,4,0,4,0,,,,,,right,130.71323074999964,131.5796077499981,133.21331395796733,right,1,0.8312219580402598,,,,,,,,samuel,001,2022_Sep_13_1705,arithmetics_exp,2021.2.3,60.3140401147677,
low,1,10,,,,,0,3,3,3,5,0,5,0,,,,,,left,133.62991091696313,134.64571254199836,136.13011487497715,left,1,0.9871977079892531,,,,,,,,samuel,001,2022_Sep_13_1705,arithmetics_exp,2021.2.3,60.3140401147677,
low,1,10,,,,,0,3,3,3,6,0,6,0,,,,,,left,136.63041712495033,137.66313924995484,139.13308383297408,left,1,1.010575541993603,,,,,,,,samuel,001,2022_Sep_13_1705,arithmetics_exp,2021.2.3,60.3140401147677,
low,1,10,,,,,0,3,3,3,7,0,7,0,,,,,,right,139.61320587497903,140.53312345797895,142.13046983297681,right,1,0.8907066250103526,,,,,,,,samuel,001,2022_Sep_13_1705,arithmetics_exp,2021.2.3,60.3140401147677,
low,1,10,,,,,0,3,3,3,8,0,8,0,,,,,,right,142.54561870795442,143.67932729196036,145.0638409999665,right,1,1.1118101669708267,,,,,,,,samuel,001,2022_Sep_13_1705,arithmetics_exp,2021.2.3,60.3140401147677,
low,1,10,,,,,0,3,3,3,9,0,9,0,,,,,,right,145.53028833295684,146.72969204199035,148.03088587499224,right,1,1.1655727089964785,,,,,,,,samuel,001,2022_Sep_13_1705,arithmetics_exp,2021.2.3,60.3140401147677,
low,1,10,,,,,0,3,3,3,,,,,0,0,0,0,,,,,,,,,100.0,low,4.0,None,None,,,samuel,001,2022_Sep_13_1705,arithmetics_exp,2021.2.3,60.3140401147677,
low,1,10,,,,,0,3,3,3,,,,,1,0,1,0,,,,,,,,,,,None,1.0,None,,,samuel,001,2022_Sep_13_1705,arithmetics_exp,2021.2.3,60.3140401147677,
low,1,10,,,,,0,3,3,3,,,,,2,0,2,0,,,,,,,,,,,None,None,4.0,,,samuel,001,2022_Sep_13_1705,arithmetics_exp,2021.2.3,60.3140401147677,
low,1,10,,,,,0,3,3,3,,,,,,,,,,,,,,,,,,,,,,,,samuel,001,2022_Sep_13_1705,arithmetics_exp,2021.2.3,60.3140401147677,
low,1,10,,,,,0,4,4,4,0,0,0,0,,,,,,right,156.1473867080058,157.1466094579664,158.64797333296156,right,1,0.965572124987375,,,,,,,,samuel,001,2022_Sep_13_1705,arithmetics_exp,2021.2.3,60.3140401147677,
low,1,10,,,,,0,4,4,4,1,0,1,0,,,,,,left,159.12966166698607,160.11201383295702,161.64759895799216,left,1,0.958347457984928,,,,,,,,samuel,001,2022_Sep_13_1705,arithmetics_exp,2021.2.3,60.3140401147677,
low,1,10,,,,,0,4,4,4,2,0,2,0,,,,,,right,162.16266483295476,163.0124960829853,164.6802773749805,right,1,0.8227307919878513,,,,,,,,samuel,001,2022_Sep_13_1705,arithmetics_exp,2021.2.3,60.3140401147677,
low,1,10,,,,,0,4,4,4,3,0,3,0,,,,,,left,165.09616366698174,166.39614849997452,167.5963514999603,left,1,1.2811578330001794,,,,,,,,samuel,001,2022_Sep_13_1705,arithmetics_exp,2021.2.3,60.3140401147677,
low,1,10,,,,,0,4,4,4,4,0,4,0,,,,,,left,168.0473180830013,169.37956737499917,170.5469158749911,left,1,1.3045634999871254,,,,,,,,samuel,001,2022_Sep_13_1705,arithmetics_exp,2021.2.3,60.3140401147677,
low,1,10,,,,,0,4,4,4,5,0,5,0,,,,,,right,170.99659862497356,171.8630242079962,173.49662262498168,right,1,0.8368037919863127,,,,,,,,samuel,001,2022_Sep_13_1705,arithmetics_exp,2021.2.3,60.3140401147677,
low,1,10,,,,,0,4,4,4,6,0,6,0,,,,,,left,173.9124174999888,174.8652147919638,176.43017566698836,left,1,0.9286489170044661,,,,,,,,samuel,001,2022_Sep_13_1705,arithmetics_exp,2021.2.3,60.3140401147677,
low,1,10,,,,,0,4,4,4,7,0,7,0,,,,,,right,176.9466736249742,178.2797819999978,179.44674499996472,right,1,1.302369875018485,,,,,,,,samuel,001,2022_Sep_13_1705,arithmetics_exp,2021.2.3,60.3140401147677,
low,1,10,,,,,0,4,4,4,8,0,8,0,,,,,,left,179.8629373749718,181.54730804200517,182.37932520796312,left,1,1.650012500002049,,,,,,,,samuel,001,2022_Sep_13_1705,arithmetics_exp,2021.2.3,60.3140401147677,
low,1,10,,,,,0,4,4,4,9,0,9,0,,,,,,right,182.89661658299156,184.0799012919888,185.3964596669539,right,1,1.160914582957048,,,,,,,,samuel,001,2022_Sep_13_1705,arithmetics_exp,2021.2.3,60.3140401147677,
low,1,10,,,,,0,4,4,4,,,,,0,0,0,0,,,,,,,,,100.0,low,None,None,4.0,,,samuel,001,2022_Sep_13_1705,arithmetics_exp,2021.2.3,60.3140401147677,
low,1,10,,,,,0,4,4,4,,,,,1,0,1,0,,,,,,,,,,,None,1.0,None,,,samuel,001,2022_Sep_13_1705,arithmetics_exp,2021.2.3,60.3140401147677,
low,1,10,,,,,0,4,4,4,,,,,2,0,2,0,,,,,,,,,,,4.0,None,None,,,samuel,001,2022_Sep_13_1705,arithmetics_exp,2021.2.3,60.3140401147677,
low,1,10,,,,,0,4,4,4,,,,,,,,,,,,,,,,,,,,,,,,samuel,001,2022_Sep_13_1705,arithmetics_exp,2021.2.3,60.3140401147677,
medium,1,10,,,,,0,5,5,5,0,0,0,0,,,,,,right,194.79688304197043,196.57862158300122,197.2969422499882,right,1,1.7562624160200357,,,,,,,,samuel,001,2022_Sep_13_1705,arithmetics_exp,2021.2.3,60.3140401147677,
medium,1,10,,,,,0,5,5,5,1,0,1,0,,,,,,right,197.7960798330023,199.84646504197735,200.29657887498615,right,1,2.0214678330230527,,,,,,,,samuel,001,2022_Sep_13_1705,arithmetics_exp,2021.2.3,60.3140401147677,
medium,1,10,,,,,0,5,5,5,2,0,2,0,,,,,,right,200.77955599996494,202.76382774999365,203.27958524995483,right,1,1.9488257499760948,,,,,,,,samuel,001,2022_Sep_13_1705,arithmetics_exp,2021.2.3,60.3140401147677,
medium,1,10,,,,,0,5,5,5,3,0,3,0,,,,,,left,203.74688662495464,205.21299454197288,206.26366766699357,left,1,1.4295164999784902,,,,,,,,samuel,001,2022_Sep_13_1705,arithmetics_exp,2021.2.3,60.3140401147677,
medium,1,10,,,,,0,5,5,5,4,0,4,0,,,,,,left,206.72899341699667,208.39678924996406,209.2469665419776,left,1,1.6317430839990266,,,,,,,,samuel,001,2022_Sep_13_1705,arithmetics_exp,2021.2.3,60.3140401147677,
medium,1,10,,,,,0,5,5,5,5,0,5,0,,,,,,right,209.76349741697777,,212.27896879200125,None,0,,,,,,,,,samuel,001,2022_Sep_13_1705,arithmetics_exp,2021.2.3,60.3140401147677,
medium,1,10,,,,,0,5,5,5,6,0,6,0,,,,,,left,212.7633517079521,213.91272416699212,215.26416904199868,left,1,1.1178989579784684,,,,,,,,samuel,001,2022_Sep_13_1705,arithmetics_exp,2021.2.3,60.3140401147677,
medium,1,10,,,,,0,5,5,5,7,0,7,0,,,,,,left,215.696809999994,217.2638547079987,218.21316566696623,left,1,1.5426404580357485,,,,,,,,samuel,001,2022_Sep_13_1705,arithmetics_exp,2021.2.3,60.3140401147677,
medium,1,10,,,,,0,5,5,5,8,0,8,0,,,,,,left,218.6957613749546,219.66293925000355,221.19641129195224,left,1,0.9449897090089507,,,,,,,,samuel,001,2022_Sep_13_1705,arithmetics_exp,2021.2.3,60.3140401147677,
medium,1,10,,,,,0,5,5,5,9,0,9,0,,,,,,left,221.59707237500697,223.24654174997704,224.09736299997894,left,1,1.628283291007392,,,,,,,,samuel,001,2022_Sep_13_1705,arithmetics_exp,2021.2.3,60.3140401147677,
medium,1,10,,,,,0,5,5,5,,,,,0,0,0,0,,,,,,,,,90.0,medium,4.0,None,None,,,samuel,001,2022_Sep_13_1705,arithmetics_exp,2021.2.3,60.3140401147677,
medium,1,10,,,,,0,5,5,5,,,,,1,0,1,0,,,,,,,,,,,None,2.0,None,,,samuel,001,2022_Sep_13_1705,arithmetics_exp,2021.2.3,60.3140401147677,
medium,1,10,,,,,0,5,5,5,,,,,2,0,2,0,,,,,,,,,,,None,None,4.0,,,samuel,001,2022_Sep_13_1705,arithmetics_exp,2021.2.3,60.3140401147677,
medium,1,10,,,,,0,5,5,5,,,,,,,,,,,,,,,,,,,,,,,,samuel,001,2022_Sep_13_1705,arithmetics_exp,2021.2.3,60.3140401147677,
medium,1,10,,,,,0,6,6,6,0,0,0,0,,,,,,right,234.93055370799266,236.38001616700785,237.42990245798137,right,1,1.414854375005234,,,,,,,,samuel,001,2022_Sep_13_1705,arithmetics_exp,2021.2.3,60.3140401147677,
medium,1,10,,,,,0,6,6,6,1,0,1,0,,,,,,left,237.91338104195893,239.6629998330027,240.41304499999387,left,1,1.7280686249723658,,,,,,,,samuel,001,2022_Sep_13_1705,arithmetics_exp,2021.2.3,60.3140401147677,
medium,1,10,,,,,0,6,6,6,2,0,2,0,,,,,,left,240.88050162495347,242.7126033329987,243.38050645799376,left,1,1.8011529999785125,,,,,,,,samuel,001,2022_Sep_13_1705,arithmetics_exp,2021.2.3,60.3140401147677,
medium,1,10,,,,,0,6,6,6,3,0,3,0,,,,,,right,243.8634732500068,245.84605274995556,246.36330974998418,right,1,1.9532867909874767,,,,,,,,samuel,001,2022_Sep_13_1705,arithmetics_exp,2021.2.3,60.3140401147677,
medium,1,10,,,,,0,6,6,6,4,0,4,0,,,,,,right,246.86320962500758,249.0292777499999,249.3635247919592,right,1,2.138278625032399,,,,,,,,samuel,001,2022_Sep_13_1705,arithmetics_exp,2021.2.3,60.3140401147677,
medium,1,10,,,,,0,6,6,6,5,0,5,0,,,,,,left,249.81332370796008,251.6469211250078,252.3134405000019,left,1,1.8111159999971278,,,,,,,,samuel,001,2022_Sep_13_1705,arithmetics_exp,2021.2.3,60.3140401147677,
medium,1,10,,,,,0,6,6,6,6,0,6,0,,,,,,left,252.79654570796993,254.22943841695087,255.29675112495897,left,1,1.4052923750132322,,,,,,,,samuel,001,2022_Sep_13_1705,arithmetics_exp,2021.2.3,60.3140401147677,
medium,1,10,,,,,0,6,6,6,7,0,7,0,,,,,,right,255.76315687497845,257.46352579200175,258.26660558296135,right,1,1.6699897079961374,,,,,,,,samuel,001,2022_Sep_13_1705,arithmetics_exp,2021.2.3,60.3140401147677,
medium,1,10,,,,,0,6,6,6,8,0,8,0,,,,,,left,258.7800703329849,261.06303708296036,261.2802782919607,right,0,2.2530673330184072,,,,,,,,samuel,001,2022_Sep_13_1705,arithmetics_exp,2021.2.3,60.3140401147677,
medium,1,10,,,,,0,6,6,6,9,0,9,0,,,,,,right,261.7298590829596,263.69616754195886,264.2298722079722,right,1,1.942721875035204,,,,,,,,samuel,001,2022_Sep_13_1705,arithmetics_exp,2021.2.3,60.3140401147677,
medium,1,10,,,,,0,6,6,6,,,,,0,0,0,0,,,,,,,,,90.0,medium,4.0,None,None,,,samuel,001,2022_Sep_13_1705,arithmetics_exp,2021.2.3,60.3140401147677,
medium,1,10,,,,,0,6,6,6,,,,,1,0,1,0,,,,,,,,,,,None,None,4.0,,,samuel,001,2022_Sep_13_1705,arithmetics_exp,2021.2.3,60.3140401147677,
medium,1,10,,,,,0,6,6,6,,,,,2,0,2,0,,,,,,,,,,,None,2.0,None,,,samuel,001,2022_Sep_13_1705,arithmetics_exp,2021.2.3,60.3140401147677,
medium,1,10,,,,,0,6,6,6,,,,,,,,,,,,,,,,,,,,,,,,samuel,001,2022_Sep_13_1705,arithmetics_exp,2021.2.3,60.3140401147677,
medium,1,10,,,,,0,7,7,7,0,0,0,0,,,,,,left,275.9635689999559,,278.4641196669545,None,0,,,,,,,,,samuel,001,2022_Sep_13_1705,arithmetics_exp,2021.2.3,60.3140401147677,
medium,1,10,,,,,0,7,7,7,1,0,1,0,,,,,,right,278.9632270829752,281.39657229196746,281.48044737498276,right,1,2.406622334034182,,,,,,,,samuel,001,2022_Sep_13_1705,arithmetics_exp,2021.2.3,60.3140401147677,
medium,1,10,,,,,0,7,7,7,2,0,2,0,,,,,,right,281.96324583300157,284.1464853750076,284.4636003749911,left,0,2.158520500001032,,,,,,,,samuel,001,2022_Sep_13_1705,arithmetics_exp,2021.2.3,60.3140401147677,
medium,1,10,,,,,0,7,7,7,3,0,3,0,,,,,,right,284.8966108749737,287.0960859999759,287.3961852499633,left,0,2.1690407500136644,,,,,,,,samuel,001,2022_Sep_13_1705,arithmetics_exp,2021.2.3,60.3140401147677,
medium,1,10,,,,,0,7,7,7,4,0,4,0,,,,,,left,287.8468260829686,289.4963334169588,290.3641864999663,left,1,1.6191268329857849,,,,,,,,samuel,001,2022_Sep_13_1705,arithmetics_exp,2021.2.3,60.3140401147677,
medium,1,10,,,,,0,7,7,7,5,0,5,0,,,,,,left,290.79711066698655,292.46343754197005,293.2965844999999,left,1,1.6445601250161417,,,,,,,,samuel,001,2022_Sep_13_1705,arithmetics_exp,2021.2.3,60.3140401147677,
medium,1,10,,,,,0,7,7,7,6,0,6,0,,,,,,left,293.7636728750076,294.81267283298075,296.2803648749832,left,1,1.0302805000101216,,,,,,,,samuel,001,2022_Sep_13_1705,arithmetics_exp,2021.2.3,60.3140401147677,
medium,1,10,,,,,0,7,7,7,7,0,7,0,,,,,,left,296.7298007920035,297.49583558295853,299.2300341670052,left,1,0.7353073750273325,,,,,,,,samuel,001,2022_Sep_13_1705,arithmetics_exp,2021.2.3,60.3140401147677,
medium,1,10,,,,,0,7,7,7,8,0,8,0,,,,,,right,299.7298508749809,301.0639235829585,302.23027704196284,right,1,1.3034619590034708,,,,,,,,samuel,001,2022_Sep_13_1705,arithmetics_exp,2021.2.3,60.3140401147677,
medium,1,10,,,,,0,7,7,7,9,0,9,0,,,,,,right,302.64639787498163,304.697093499999,305.14670916699106,right,1,2.0191233749501407,,,,,,,,samuel,001,2022_Sep_13_1705,arithmetics_exp,2021.2.3,60.3140401147677,
medium,1,10,,,,,0,7,7,7,,,,,0,0,0,0,,,,,,,,,70.0,medium,None,2.0,None,,,samuel,001,2022_Sep_13_1705,arithmetics_exp,2021.2.3,60.3140401147677,
medium,1,10,,,,,0,7,7,7,,,,,1,0,1,0,,,,,,,,,,,None,None,4.0,,,samuel,001,2022_Sep_13_1705,arithmetics_exp,2021.2.3,60.3140401147677,
medium,1,10,,,,,0,7,7,7,,,,,2,0,2,0,,,,,,,,,,,4.0,None,None,,,samuel,001,2022_Sep_13_1705,arithmetics_exp,2021.2.3,60.3140401147677,
medium,1,10,,,,,0,7,7,7,,,,,,,,,,,,,,,,,,,,,,,,samuel,001,2022_Sep_13_1705,arithmetics_exp,2021.2.3,60.3140401147677,
medium,1,10,,,,,0,8,8,8,0,0,0,0,,,,,,left,315.28093979199184,317.06362787500257,317.7806793329655,left,1,1.7528247919981368,,,,,,,,samuel,001,2022_Sep_13_1705,arithmetics_exp,2021.2.3,60.3140401147677,
medium,1,10,,,,,0,8,8,8,1,0,1,0,,,,,,right,318.22991145798005,319.6802630829625,320.7297951669898,right,1,1.4278550409944728,,,,,,,,samuel,001,2022_Sep_13_1705,arithmetics_exp,2021.2.3,60.3140401147677,
medium,1,10,,,,,0,8,8,8,2,0,2,0,,,,,,right,321.21323908295017,322.912777874968,323.71333816699916,right,1,1.677056500047911,,,,,,,,samuel,001,2022_Sep_13_1705,arithmetics_exp,2021.2.3,60.3140401147677,
medium,1,10,,,,,0,8,8,8,3,0,3,0,,,,,,left,324.16334287496284,326.0127949579619,326.66308199998457,left,1,1.8305372500326484,,,,,,,,samuel,001,2022_Sep_13_1705,arithmetics_exp,2021.2.3,60.3140401147677,
medium,1,10,,,,,0,8,8,8,4,0,4,0,,,,,,right,327.0965555830044,329.0125869580079,329.596853541967,right,1,1.8897022919845767,,,,,,,,samuel,001,2022_Sep_13_1705,arithmetics_exp,2021.2.3,60.3140401147677,
medium,1,10,,,,,0,8,8,8,5,0,5,0,,,,,,left,330.06329649995314,331.71277437498793,332.58054229198024,left,1,1.6257240409613587,,,,,,,,samuel,001,2022_Sep_13_1705,arithmetics_exp,2021.2.3,60.3140401147677,
medium,1,10,,,,,0,8,8,8,6,0,6,0,,,,,,right,333.03001329198014,335.3964050829527,335.5302021249663,right,1,2.3404749170294963,,,,,,,,samuel,001,2022_Sep_13_1705,arithmetics_exp,2021.2.3,60.3140401147677,
medium,1,10,,,,,0,8,8,8,7,0,7,0,,,,,,left,335.9805857499596,338.36629862495465,338.4805260829744,left,1,2.3496969580301084,,,,,,,,samuel,001,2022_Sep_13_1705,arithmetics_exp,2021.2.3,60.3140401147677,
medium,1,10,,,,,0,8,8,8,8,0,8,0,,,,,,left,338.9966141670011,341.1803217079723,341.49674754199805,right,0,2.1497340829810128,,,,,,,,samuel,001,2022_Sep_13_1705,arithmetics_exp,2021.2.3,60.3140401147677,
medium,1,10,,,,,0,8,8,8,9,0,9,0,,,,,,left,341.9632142079645,343.56300508300774,344.4635029579513,left,1,1.5663605839945376,,,,,,,,samuel,001,2022_Sep_13_1705,arithmetics_exp,2021.2.3,60.3140401147677,
medium,1,10,,,,,0,8,8,8,,,,,0,0,0,0,,,,,,,,,90.0,medium,4.0,None,None,,,samuel,001,2022_Sep_13_1705,arithmetics_exp,2021.2.3,60.3140401147677,
medium,1,10,,,,,0,8,8,8,,,,,1,0,1,0,,,,,,,,,,,None,2.0,None,,,samuel,001,2022_Sep_13_1705,arithmetics_exp,2021.2.3,60.3140401147677,
medium,1,10,,,,,0,8,8,8,,,,,2,0,2,0,,,,,,,,,,,None,None,4.0,,,samuel,001,2022_Sep_13_1705,arithmetics_exp,2021.2.3,60.3140401147677,
medium,1,10,,,,,0,8,8,8,,,,,,,,,,,,,,,,,,,,,,,,samuel,001,2022_Sep_13_1705,arithmetics_exp,2021.2.3,60.3140401147677,
medium,1,10,,,,,0,9,9,9,0,0,0,0,,,,,,right,353.23005899996497,354.7796426669811,355.74676820798777,left,0,1.53188612498343,,,,,,,,samuel,001,2022_Sep_13_1705,arithmetics_exp,2021.2.3,60.3140401147677,
medium,1,10,,,,,0,9,9,9,1,0,1,0,,,,,,right,356.19637354195584,358.02939029195113,358.6969744579983,right,1,1.8130285419756547,,,,,,,,samuel,001,2022_Sep_13_1705,arithmetics_exp,2021.2.3,60.3140401147677,
medium,1,10,,,,,0,9,9,9,2,0,2,0,,,,,,right,359.16338524996536,361.0636381249642,361.663447082974,right,1,1.8708727089688182,,,,,,,,samuel,001,2022_Sep_13_1705,arithmetics_exp,2021.2.3,60.3140401147677,
medium,1,10,,,,,0,9,9,9,3,0,3,0,,,,,,right,362.1468892080011,363.3800716669648,364.6466790419654,right,1,1.2067862499970943,,,,,,,,samuel,001,2022_Sep_13_1705,arithmetics_exp,2021.2.3,60.3140401147677,
medium,1,10,,,,,0,9,9,9,4,0,4,0,,,,,,left,365.09681062499294,366.4638965000049,367.59631604200695,right,0,1.3449887089664117,,,,,,,,samuel,001,2022_Sep_13_1705,arithmetics_exp,2021.2.3,60.3140401147677,
medium,1,10,,,,,0,9,9,9,5,0,5,0,,,,,,right,368.02973041695077,370.24643587495666,370.5470341249602,left,0,2.188247250043787,,,,,,,,samuel,001,2022_Sep_13_1705,arithmetics_exp,2021.2.3,60.3140401147677,
medium,1,10,,,,,0,9,9,9,6,0,6,0,,,,,,left,371.0302017079666,372.82926787500037,373.530399457959,left,1,1.7800350419711322,,,,,,,,samuel,001,2022_Sep_13_1705,arithmetics_exp,2021.2.3,60.3140401147677,
medium,1,10,,,,,0,9,9,9,7,0,7,0,,,,,,right,374.0299744999502,375.646433124959,376.5305317500024,right,1,1.5962099999887869,,,,,,,,samuel,001,2022_Sep_13_1705,arithmetics_exp,2021.2.3,60.3140401147677,
medium,1,10,,,,,0,9,9,9,8,0,8,0,,,,,,left,376.94688920798944,378.0293222499895,379.46418004197767,left,1,1.0469004579936154,,,,,,,,samuel,001,2022_Sep_13_1705,arithmetics_exp,2021.2.3,60.3140401147677,
medium,1,10,,,,,0,9,9,9,9,0,9,0,,,,,,right,379.9466936669778,381.5294509579544,382.44674070796464,right,1,1.5507522500120103,,,,,,,,samuel,001,2022_Sep_13_1705,arithmetics_exp,2021.2.3,60.3140401147677,
medium,1,10,,,,,0,9,9,9,,,,,0,0,0,0,,,,,,,,,70.0,medium,4.0,None,None,,,samuel,001,2022_Sep_13_1705,arithmetics_exp,2021.2.3,60.3140401147677,
medium,1,10,,,,,0,9,9,9,,,,,1,0,1,0,,,,,,,,,,,None,None,4.0,,,samuel,001,2022_Sep_13_1705,arithmetics_exp,2021.2.3,60.3140401147677,
medium,1,10,,,,,0,9,9,9,,,,,2,0,2,0,,,,,,,,,,,None,3.0,None,,,samuel,001,2022_Sep_13_1705,arithmetics_exp,2021.2.3,60.3140401147677,
medium,1,10,,,,,0,9,9,9,,,,,,,,,,,,,,,,,,,,,,,,samuel,001,2022_Sep_13_1705,arithmetics_exp,2021.2.3,60.3140401147677,
high,1,10,,,,,0,10,10,10,0,0,0,0,,,,,,right,391.430697874981,393.4795509999967,393.9304786249995,right,1,2.0178404999896884,,,,,,,,samuel,001,2022_Sep_13_1705,arithmetics_exp,2021.2.3,60.3140401147677,
high,1,10,,,,,0,10,10,10,1,0,1,0,,,,,,right,394.3637086249655,,396.8657449579914,None,0,,,,,,,,,samuel,001,2022_Sep_13_1705,arithmetics_exp,2021.2.3,60.3140401147677,
high,1,10,,,,,0,10,10,10,2,0,2,0,,,,,,left,397.34726387495175,399.0298160829698,399.8476474999916,left,1,1.6540510409977287,,,,,,,,samuel,001,2022_Sep_13_1705,arithmetics_exp,2021.2.3,60.3140401147677,
high,1,10,,,,,0,10,10,10,3,0,3,0,,,,,,right,400.29660958296154,402.5292850419646,402.7963499999605,right,1,2.209418167010881,,,,,,,,samuel,001,2022_Sep_13_1705,arithmetics_exp,2021.2.3,60.3140401147677,
high,1,10,,,,,0,10,10,10,4,0,4,0,,,,,,left,403.22990470798686,405.6126327079837,405.729770749982,left,1,2.34840883302968,,,,,,,,samuel,001,2022_Sep_13_1705,arithmetics_exp,2021.2.3,60.3140401147677,
high,1,10,,,,,0,10,10,10,5,0,5,0,,,,,,left,406.1633441669983,408.16380379197653,408.6803809579578,right,0,1.9744599579717033,,,,,,,,samuel,001,2022_Sep_13_1705,arithmetics_exp,2021.2.3,60.3140401147677,
high,1,10,,,,,0,10,10,10,6,0,6,0,,,,,,right,409.14712874998804,410.9959355419851,411.66299733298365,right,1,1.8218243750161491,,,,,,,,samuel,001,2022_Sep_13_1705,arithmetics_exp,2021.2.3,60.3140401147677,
high,1,10,,,,,0,10,10,10,7,0,7,0,,,,,,left,412.11329470796045,413.4460167919751,414.6130404580035,left,1,1.3037565000122413,,,,,,,,samuel,001,2022_Sep_13_1705,arithmetics_exp,2021.2.3,60.3140401147677,
high,1,10,,,,,0,10,10,10,8,0,8,0,,,,,,right,415.0978592080064,416.9802489169524,417.5963717919658,left,0,1.8559632500400767,,,,,,,,samuel,001,2022_Sep_13_1705,arithmetics_exp,2021.2.3,60.3140401147677,
high,1,10,,,,,0,10,10,10,9,0,9,0,,,,,,left,418.06334074999904,420.1462432919652,420.5635137920035,left,1,2.058921417046804,,,,,,,,samuel,001,2022_Sep_13_1705,arithmetics_exp,2021.2.3,60.3140401147677,
high,1,10,,,,,0,10,10,10,,,,,0,0,0,0,,,,,,,,,70.0,high,4.0,None,None,,,samuel,001,2022_Sep_13_1705,arithmetics_exp,2021.2.3,60.3140401147677,
high,1,10,,,,,0,10,10,10,,,,,1,0,1,0,,,,,,,,,,,None,None,4.0,,,samuel,001,2022_Sep_13_1705,arithmetics_exp,2021.2.3,60.3140401147677,
high,1,10,,,,,0,10,10,10,,,,,2,0,2,0,,,,,,,,,,,None,3.0,None,,,samuel,001,2022_Sep_13_1705,arithmetics_exp,2021.2.3,60.3140401147677,
high,1,10,,,,,0,10,10,10,,,,,,,,,,,,,,,,,,,,,,,,samuel,001,2022_Sep_13_1705,arithmetics_exp,2021.2.3,60.3140401147677,
high,1,10,,,,,0,11,11,11,0,0,0,0,,,,,,right,429.38035170797957,431.19599587499397,431.88042733300244,left,0,1.7820288329967298,,,,,,,,samuel,001,2022_Sep_13_1705,arithmetics_exp,2021.2.3,60.3140401147677,
high,1,10,,,,,0,11,11,11,1,0,1,0,,,,,,right,432.36379358300474,434.42994416697184,434.88041987497127,right,1,2.046051666024141,,,,,,,,samuel,001,2022_Sep_13_1705,arithmetics_exp,2021.2.3,60.3140401147677,
high,1,10,,,,,0,11,11,11,2,0,2,0,,,,,,left,435.32976937497733,436.68345170799876,437.8471507919603,left,1,1.3204425419680774,,,,,,,,samuel,001,2022_Sep_13_1705,arithmetics_exp,2021.2.3,60.3140401147677,
high,1,10,,,,,0,11,11,11,3,0,3,0,,,,,,left,438.31312700000126,440.3293332919711,440.8133986250032,right,0,1.9837509170174599,,,,,,,,samuel,001,2022_Sep_13_1705,arithmetics_exp,2021.2.3,60.3140401147677,
high,1,10,,,,,0,11,11,11,4,0,4,0,,,,,,left,441.2964269169606,443.36299362499267,443.7963240419631,left,1,2.041617667011451,,,,,,,,samuel,001,2022_Sep_13_1705,arithmetics_exp,2021.2.3,60.3140401147677,
high,1,10,,,,,0,11,11,11,5,0,5,0,,,,,,right,444.2632827499765,,446.7803034170065,None,0,,,,,,,,,samuel,001,2022_Sep_13_1705,arithmetics_exp,2021.2.3,60.3140401147677,
high,1,10,,,,,0,11,11,11,6,0,6,0,,,,,,left,447.24643058300717,449.17993458296405,449.74685420800233,right,0,1.9156585420132615,,,,,,,,samuel,001,2022_Sep_13_1705,arithmetics_exp,2021.2.3,60.3140401147677,
high,1,10,,,,,0,11,11,11,7,0,7,0,,,,,,left,450.16422854195116,452.347347916977,452.6806123749702,left,1,2.1492259170045145,,,,,,,,samuel,001,2022_Sep_13_1705,arithmetics_exp,2021.2.3,60.3140401147677,
high,1,10,,,,,0,11,11,11,8,0,8,0,,,,,,right,453.14669174997834,455.2295933329733,455.64727562497137,left,0,2.061900708009489,,,,,,,,samuel,001,2022_Sep_13_1705,arithmetics_exp,2021.2.3,60.3140401147677,
high,1,10,,,,,0,11,11,11,9,0,9,0,,,,,,right,456.06336958298925,458.2796139999991,458.58002329198644,right,1,2.186089750030078,,,,,,,,samuel,001,2022_Sep_13_1705,arithmetics_exp,2021.2.3,60.3140401147677,
high,1,10,,,,,0,11,11,11,,,,,0,0,0,0,,,,,,,,,50.0,high,None,None,4.0,,,samuel,001,2022_Sep_13_1705,arithmetics_exp,2021.2.3,60.3140401147677,
high,1,10,,,,,0,11,11,11,,,,,1,0,1,0,,,,,,,,,,,3.0,None,None,,,samuel,001,2022_Sep_13_1705,arithmetics_exp,2021.2.3,60.3140401147677,
high,1,10,,,,,0,11,11,11,,,,,2,0,2,0,,,,,,,,,,,None,3.0,None,,,samuel,001,2022_Sep_13_1705,arithmetics_exp,2021.2.3,60.3140401147677,
high,1,10,,,,,0,11,11,11,,,,,,,,,,,,,,,,,,,,,,,,samuel,001,2022_Sep_13_1705,arithmetics_exp,2021.2.3,60.3140401147677,
high,1,10,,,,,0,12,12,12,0,0,0,0,,,,,,left,469.0467830419657,470.5300871669897,471.5465829579625,left,1,1.458894917042926,,,,,,,,samuel,001,2022_Sep_13_1705,arithmetics_exp,2021.2.3,60.3140401147677,
high,1,10,,,,,0,12,12,12,1,0,1,0,,,,,,left,471.9804792079958,473.64603879197966,474.4803650419926,left,1,1.6461680000065826,,,,,,,,samuel,001,2022_Sep_13_1705,arithmetics_exp,2021.2.3,60.3140401147677,
high,1,10,,,,,0,12,12,12,2,0,2,0,,,,,,left,474.98020816699136,477.280893291987,477.4801444999757,left,1,2.2781574580003507,,,,,,,,samuel,001,2022_Sep_13_1705,arithmetics_exp,2021.2.3,60.3140401147677,
high,1,10,,,,,0,12,12,12,3,0,3,0,,,,,,right,477.9299844579655,479.7460267499555,480.42993474996183,right,1,1.7929543330101296,,,,,,,,samuel,001,2022_Sep_13_1705,arithmetics_exp,2021.2.3,60.3140401147677,
high,1,10,,,,,0,12,12,12,4,0,4,0,,,,,,left,480.8667912919773,,483.38109162496403,None,0,,,,,,,,,samuel,001,2022_Sep_13_1705,arithmetics_exp,2021.2.3,60.3140401147677,
high,1,10,,,,,0,12,12,12,5,0,5,0,,,,,,right,483.81311245798133,485.9467205829569,486.3130677919835,left,0,2.100575749995187,,,,,,,,samuel,001,2022_Sep_13_1705,arithmetics_exp,2021.2.3,60.3140401147677,
high,1,10,,,,,0,12,12,12,6,0,6,0,,,,,,right,486.7965426669689,489.07960274996003,489.2965170419775,left,0,2.2538247919874266,,,,,,,,samuel,001,2022_Sep_13_1705,arithmetics_exp,2021.2.3,60.3140401147677,
high,1,10,,,,,0,12,12,12,7,0,7,0,,,,,,left,489.7806287499843,491.22923549998086,492.28016087500146,left,1,1.4140116249909624,,,,,,,,samuel,001,2022_Sep_13_1705,arithmetics_exp,2021.2.3,60.3140401147677,
high,1,10,,,,,0,12,12,12,8,0,8,0,,,,,,left,492.76357458299026,,495.28007116698427,None,0,,,,,,,,,samuel,001,2022_Sep_13_1705,arithmetics_exp,2021.2.3,60.3140401147677,
high,1,10,,,,,0,12,12,12,9,0,9,0,,,,,,right,495.7131546669989,498.18086858297465,498.2129583329661,right,1,2.440953667042777,,,,,,,,samuel,001,2022_Sep_13_1705,arithmetics_exp,2021.2.3,60.3140401147677,
high,1,10,,,,,0,12,12,12,,,,,0,0,0,0,,,,,,,,,60.0,high,None,None,4.0,,,samuel,001,2022_Sep_13_1705,arithmetics_exp,2021.2.3,60.3140401147677,
high,1,10,,,,,0,12,12,12,,,,,1,0,1,0,,,,,,,,,,,None,3.0,None,,,samuel,001,2022_Sep_13_1705,arithmetics_exp,2021.2.3,60.3140401147677,
high,1,10,,,,,0,12,12,12,,,,,2,0,2,0,,,,,,,,,,,3.0,None,None,,,samuel,001,2022_Sep_13_1705,arithmetics_exp,2021.2.3,60.3140401147677,
high,1,10,,,,,0,12,12,12,,,,,,,,,,,,,,,,,,,,,,,,samuel,001,2022_Sep_13_1705,arithmetics_exp,2021.2.3,60.3140401147677,
high,1,10,,,,,0,13,13,13,0,0,0,0,,,,,,left,508.78072316700127,510.42932091699913,511.28063808300067,left,1,1.613914250046946,,,,,,,,samuel,001,2022_Sep_13_1705,arithmetics_exp,2021.2.3,60.3140401147677,
high,1,10,,,,,0,13,13,13,1,0,1,0,,,,,,right,511.7299923329847,513.7812696250039,514.2472737079952,left,0,2.023869500029832,,,,,,,,samuel,001,2022_Sep_13_1705,arithmetics_exp,2021.2.3,60.3140401147677,
high,1,10,,,,,0,13,13,13,2,0,2,0,,,,,,right,514.7806695419713,516.9962922079721,517.2804603749537,right,1,2.1904868749552406,,,,,,,,samuel,001,2022_Sep_13_1705,arithmetics_exp,2021.2.3,60.3140401147677,
high,1,10,,,,,0,13,13,13,3,0,3,0,,,,,,right,517.7130612919573,519.729644291976,520.213328541955,left,0,1.9934405419626273,,,,,,,,samuel,001,2022_Sep_13_1705,arithmetics_exp,2021.2.3,60.3140401147677,
high,1,10,,,,,0,13,13,13,4,0,4,0,,,,,,right,520.6633609999553,522.2127263749717,523.1802168329596,right,1,1.522508582973387,,,,,,,,samuel,001,2022_Sep_13_1705,arithmetics_exp,2021.2.3,60.3140401147677,
high,1,10,,,,,0,13,13,13,5,0,5,0,,,,,,left,523.6805770419887,525.4629313329933,526.1805778749986,left,1,1.754252583021298,,,,,,,,samuel,001,2022_Sep_13_1705,arithmetics_exp,2021.2.3,60.3140401147677,
high,1,10,,,,,0,13,13,13,6,0,6,0,,,,,,left,526.6642113329726,528.9455890829558,529.1801191249979,right,0,2.258011666999664,,,,,,,,samuel,001,2022_Sep_13_1705,arithmetics_exp,2021.2.3,60.3140401147677,
high,1,10,,,,,0,13,13,13,7,0,7,0,,,,,,right,529.6806786669767,531.846696958004,532.1803040420054,left,0,2.1385278750094585,,,,,,,,samuel,001,2022_Sep_13_1705,arithmetics_exp,2021.2.3,60.3140401147677,
high,1,10,,,,,0,13,13,13,8,0,8,0,,,,,,left,532.6965590830077,,535.2134510829928,None,0,,,,,,,,,samuel,001,2022_Sep_13_1705,arithmetics_exp,2021.2.3,60.3140401147677,
high,1,10,,,,,0,13,13,13,9,0,9,0,,,,,,left,535.6801802080008,537.6126475419733,538.180377749959,left,1,1.898173583962489,,,,,,,,samuel,001,2022_Sep_13_1705,arithmetics_exp,2021.2.3,60.3140401147677,
high,1,10,,,,,0,13,13,13,,,,,0,0,0,0,,,,,,,,,50.0,high,None,None,4.0,,,samuel,001,2022_Sep_13_1705,arithmetics_exp,2021.2.3,60.3140401147677,
high,1,10,,,,,0,13,13,13,,,,,1,0,1,0,,,,,,,,,,,4.0,None,None,,,samuel,001,2022_Sep_13_1705,arithmetics_exp,2021.2.3,60.3140401147677,
high,1,10,,,,,0,13,13,13,,,,,2,0,2,0,,,,,,,,,,,None,3.0,None,,,samuel,001,2022_Sep_13_1705,arithmetics_exp,2021.2.3,60.3140401147677,
high,1,10,,,,,0,13,13,13,,,,,,,,,,,,,,,,,,,,,,,,samuel,001,2022_Sep_13_1705,arithmetics_exp,2021.2.3,60.3140401147677,
high,1,10,,,,,0,14,14,14,0,0,0,0,,,,,,right,546.8304807919776,548.7803827919997,549.3466205419973,right,1,1.9164617499918677,,,,,,,,samuel,001,2022_Sep_13_1705,arithmetics_exp,2021.2.3,60.3140401147677,
high,1,10,,,,,0,14,14,14,1,0,1,0,,,,,,right,549.7963837499847,552.0130007919506,552.2967983749695,left,0,2.183014291978907,,,,,,,,samuel,001,2022_Sep_13_1705,arithmetics_exp,2021.2.3,60.3140401147677,
high,1,10,,,,,0,14,14,14,2,0,2,0,,,,,,right,552.813102916989,554.9960947919753,555.3134802499553,right,1,2.1581367919570766,,,,,,,,samuel,001,2022_Sep_13_1705,arithmetics_exp,2021.2.3,60.3140401147677,
high,1,10,,,,,0,14,14,14,3,0,3,0,,,,,,right,555.7633829999832,,558.2639040829963,None,0,,,,,,,,,samuel,001,2022_Sep_13_1705,arithmetics_exp,2021.2.3,60.3140401147677,
high,1,10,,,,,0,14,14,14,4,0,4,0,,,,,,right,558.7969549580012,,561.3130769169657,None,0,,,,,,,,,samuel,001,2022_Sep_13_1705,arithmetics_exp,2021.2.3,60.3140401147677,
high,1,10,,,,,0,14,14,14,5,0,5,0,,,,,,right,561.780065333005,563.163286416966,564.2805201250012,right,1,1.3509222500142641,,,,,,,,samuel,001,2022_Sep_13_1705,arithmetics_exp,2021.2.3,60.3140401147677,
high,1,10,,,,,0,14,14,14,6,0,6,0,,,,,,right,564.6963635829743,566.6800947919837,567.1970845419564,left,0,1.9537796250078827,,,,,,,,samuel,001,2022_Sep_13_1705,arithmetics_exp,2021.2.3,60.3140401147677,
high,1,10,,,,,0,14,14,14,7,0,7,0,,,,,,left,567.7303524169838,,570.2468687079963,None,0,,,,,,,,,samuel,001,2022_Sep_13_1705,arithmetics_exp,2021.2.3,60.3140401147677,
high,1,10,,,,,0,14,14,14,8,0,8,0,,,,,,right,570.696746792004,572.6971921249642,573.1970418329583,left,0,1.9700352910440415,,,,,,,,samuel,001,2022_Sep_13_1705,arithmetics_exp,2021.2.3,60.3140401147677,
high,1,10,,,,,0,14,14,14,9,0,9,0,,,,,,right,573.6300758749712,575.6973185829702,576.1303425829974,right,1,2.0448083340306766,,,,,,,,samuel,001,2022_Sep_13_1705,arithmetics_exp,2021.2.3,60.3140401147677,
high,1,10,,,,,0,14,14,14,,,,,0,0,0,0,,,,,,,,,40.0,high,None,None,4.0,,,samuel,001,2022_Sep_13_1705,arithmetics_exp,2021.2.3,60.3140401147677,
high,1,10,,,,,0,14,14,14,,,,,1,0,1,0,,,,,,,,,,,None,4.0,None,,,samuel,001,2022_Sep_13_1705,arithmetics_exp,2021.2.3,60.3140401147677,
high,1,10,,,,,0,14,14,14,,,,,2,0,2,0,,,,,,,,,,,4.0,None,None,,,samuel,001,2022_Sep_13_1705,arithmetics_exp,2021.2.3,60.3140401147677,
high,1,10,,,,,0,14,14,14,,,,,,,,,,,,,,,,,,,,,,,,samuel,001,2022_Sep_13_1705,arithmetics_exp,2021.2.3,60.3140401147677,
,,,,,,,,,,,,,,,,,,,,,,,,,,,,,,,,space,2.53085966699291,samuel,001,2022_Sep_13_1705,arithmetics_exp,2021.2.3,60.3140401147677,
