difficulty_level,num_session,level_loops.thisRepN,level_loops.thisTrialN,level_loops.thisN,level_loops.thisIndex,trial_loop.thisRepN,trial_loop.thisTrialN,trial_loop.thisN,trial_loop.thisIndex,ratings.thisRepN,ratings.thisTrialN,ratings.thisN,ratings.thisIndex,start_time_stamp,reqPress_key,stim_start,press_key_time,stim_end,key_resp.keys,key_resp.rt,key_resp.started,key_resp.stopped,key_resp.corr,accuracy,diff,rating_effort.response,rating_difficulty.response,rating_attention.response,participant,replicate,hand,date,expName,psychopyVersion,frameRate,
low,1,0,0,0,0,0,0,0,0,,,,,1663057868774,['k'],3.2349355000187643,4.199065459019039,5.749707875016611,['k'],[0.9054213750059716],12.207363250025082,13.361534791009035,1,,,,,,samuel,001,right,2022_Sep_13_1631,fingertaping-exp,2021.2.3,60.217943907248646,
low,1,0,0,0,0,1,0,1,0,,,,,,['k'],6.185987209028099,6.866302667011041,8.699111209018156,['k'],[0.6342919999733567],15.150507708021905,16.045376250054687,1,,,,,,samuel,001,right,2022_Sep_13_1631,fingertaping-exp,2021.2.3,60.217943907248646,
low,1,0,0,0,0,2,0,2,0,,,,,,['j'],9.134719750029035,9.882519209000748,11.65037383401068,['j'],[0.7097420419449918],18.099158708006144,19.061457250034437,1,,,,,,samuel,001,right,2022_Sep_13_1631,fingertaping-exp,2021.2.3,60.217943907248646,
low,1,0,0,0,0,3,0,3,0,,,,,,['k'],12.135545250028372,12.768538417003583,14.650080999999773,['k'],[0.5773299160064198],21.111508666013833,21.94592479104176,1,,,,,,samuel,001,right,2022_Sep_13_1631,fingertaping-exp,2021.2.3,60.217943907248646,
low,1,0,0,0,0,4,0,4,0,,,,,,['semicolon'],15.119734167004935,15.915597042010631,17.632929791987408,['semicolon'],[0.7513542920351028],24.089537500054576,25.078470916021615,1,,,,,,samuel,001,right,2022_Sep_13_1631,fingertaping-exp,2021.2.3,60.217943907248646,
low,1,0,0,0,0,5,0,5,0,,,,,,['j'],18.10325179202482,18.88270137499785,20.615883417020086,['j'],[0.7224028749624267],27.07848687504884,28.061772041022778,1,,,,,,samuel,001,right,2022_Sep_13_1631,fingertaping-exp,2021.2.3,60.217943907248646,
low,1,0,0,0,0,6,0,6,0,,,,,,['j'],21.086004916985985,21.63242433400592,23.599054666992743,['j'],[0.48422791698249057],30.068676458031405,30.81135929102311,1,,,,,,samuel,001,right,2022_Sep_13_1631,fingertaping-exp,2021.2.3,60.217943907248646,
low,1,0,0,0,0,7,0,7,0,,,,,,['semicolon'],24.085773417027667,24.666628709004726,26.599281584029086,['semicolon'],[0.5284647090011276],33.06448179105064,33.82935279101366,1,,,,,,samuel,001,right,2022_Sep_13_1631,fingertaping-exp,2021.2.3,60.217943907248646,
low,1,0,0,0,0,8,0,8,0,,,,,,['k'],27.035980875021778,27.63321820902638,29.55006262502866,['k'],[0.5281823329860345],36.008731625042856,36.812879291013815,1,,,,,,samuel,001,right,2022_Sep_13_1631,fingertaping-exp,2021.2.3,60.217943907248646,
low,1,0,0,0,0,9,0,9,0,,,,,,['semicolon'],30.035789042012766,30.63343841698952,32.55002462497214,['semicolon'],[0.5521604159730487],39.008815375040285,39.812600833014585,1,,,,,,samuel,001,right,2022_Sep_13_1631,fingertaping-exp,2021.2.3,60.217943907248646,
low,1,0,0,0,0,,,,,0,0,0,0,,,,,,,,,,,100.0,low,None,None,4.0,samuel,001,right,2022_Sep_13_1631,fingertaping-exp,2021.2.3,60.217943907248646,
low,1,0,0,0,0,,,,,1,0,1,0,,,,,,,,,,,,,None,2.0,None,samuel,001,right,2022_Sep_13_1631,fingertaping-exp,2021.2.3,60.217943907248646,
low,1,0,0,0,0,,,,,2,0,2,0,,,,,,,,,,,,,4.0,None,None,samuel,001,right,2022_Sep_13_1631,fingertaping-exp,2021.2.3,60.217943907248646,
low,1,0,1,1,1,0,0,0,0,,,,,,['semicolon'],52.200448959018104,52.96647987497272,54.699335624987725,['semicolon'],[0.7195812919526361],61.161517666012514,62.14496920804959,1,,,,,,samuel,001,right,2022_Sep_13_1631,fingertaping-exp,2021.2.3,60.217943907248646,
low,1,0,1,1,1,1,0,1,0,,,,,,['j'],55.11663033399964,55.69876054202905,57.61581191699952,['j'],[0.5380873749963939],64.07902233302593,64.86171695805388,1,,,,,,samuel,001,right,2022_Sep_13_1631,fingertaping-exp,2021.2.3,60.217943907248646,
low,1,0,1,1,1,2,0,2,0,,,,,,['l'],58.06647904199781,58.981558458996005,60.581674250017386,['l'],[0.8686867909855209],67.0284574580146,68.14490604103776,1,,,,,,samuel,001,right,2022_Sep_13_1631,fingertaping-exp,2021.2.3,60.217943907248646,
low,1,0,1,1,1,3,0,3,0,,,,,,['semicolon'],61.065572749997955,61.672044417005964,63.58160029200371,['semicolon'],[0.5764836660237052],70.024664666038,70.85323679103749,1,,,,,,samuel,001,right,2022_Sep_13_1631,fingertaping-exp,2021.2.3,60.217943907248646,
low,1,0,1,1,1,4,0,4,0,,,,,,['k'],64.04999874997884,64.66621812502854,66.55892066698289,['k'],[0.5800161670194939],73.0132252080366,73.84390274999896,1,,,,,,samuel,001,right,2022_Sep_13_1631,fingertaping-exp,2021.2.3,60.217943907248646,
low,1,0,1,1,1,5,0,5,0,,,,,,['semicolon'],66.99978354200721,67.66331004200038,69.49818479199894,['semicolon'],[0.6244134579901583],75.96078870800557,76.83657445805147,1,,,,,,samuel,001,right,2022_Sep_13_1631,fingertaping-exp,2021.2.3,60.217943907248646,
low,1,0,1,1,1,6,0,6,0,,,,,,['l'],69.98208133399021,70.74850624997634,72.48274104198208,['l'],[0.7156778330099769],78.94154033303494,79.92851737502497,1,,,,,,samuel,001,right,2022_Sep_13_1631,fingertaping-exp,2021.2.3,60.217943907248646,
low,1,0,1,1,1,7,0,7,0,,,,,,['l'],72.91658391698729,73.65717341698473,75.41517562500667,['l'],[0.7068135419976898],81.87842004100094,82.82843379100086,1,,,,,,samuel,001,right,2022_Sep_13_1631,fingertaping-exp,2021.2.3,60.217943907248646,
low,1,0,1,1,1,8,0,8,0,,,,,,['semicolon'],75.84874604200013,76.68156045902288,78.36493358400185,['semicolon'],[0.7807976659969427],84.81245445803506,85.84510100004263,1,,,,,,samuel,001,right,2022_Sep_13_1631,fingertaping-exp,2021.2.3,60.217943907248646,
low,1,0,1,1,1,9,0,9,0,,,,,,['k'],78.81537725002272,79.59947675000876,81.31512083398411,['k'],[0.7462214999832213],87.77503958303714,88.77733791602077,1,,,,,,samuel,001,right,2022_Sep_13_1631,fingertaping-exp,2021.2.3,60.217943907248646,
low,1,0,1,1,1,,,,,0,0,0,0,,,,,,,,,,,100.0,low,None,None,4.0,samuel,001,right,2022_Sep_13_1631,fingertaping-exp,2021.2.3,60.217943907248646,
low,1,0,1,1,1,,,,,1,0,1,0,,,,,,,,,,,,,4.0,None,None,samuel,001,right,2022_Sep_13_1631,fingertaping-exp,2021.2.3,60.217943907248646,
low,1,0,1,1,1,,,,,2,0,2,0,,,,,,,,,,,,,None,2.0,None,samuel,001,right,2022_Sep_13_1631,fingertaping-exp,2021.2.3,60.217943907248646,
low,1,0,2,2,2,0,0,0,0,,,,,,['k'],96.46689012501156,97.32620816701092,98.96646854199935,['k'],[0.8207996250130236],105.42857320804615,106.49398329103133,1,,,,,,samuel,001,right,2022_Sep_13_1631,fingertaping-exp,2021.2.3,60.217943907248646,
low,1,0,2,2,2,1,0,1,0,,,,,,['semicolon'],99.4488223749795,100.26488450000761,101.9484511250048,['semicolon'],[0.768002874974627],108.40937279100763,109.4284971250454,1,,,,,,samuel,001,right,2022_Sep_13_1631,fingertaping-exp,2021.2.3,60.217943907248646,
low,1,0,2,2,2,2,0,2,0,,,,,,['j'],102.43229641701328,103.14405979198636,104.93205079197651,['j'],[0.6802373329992406],111.39316166605568,112.31068741600029,1,,,,,,samuel,001,right,2022_Sep_13_1631,fingertaping-exp,2021.2.3,60.217943907248646,
low,1,0,2,2,2,3,0,3,0,,,,,,['j'],105.36769716697745,105.98279433400603,107.86711083399132,['j'],[0.576865250011906],114.32859437505249,115.1608719160431,1,,,,,,samuel,001,right,2022_Sep_13_1631,fingertaping-exp,2021.2.3,60.217943907248646,
low,1,0,2,2,2,4,0,4,0,,,,,,['semicolon'],108.31545029202243,109.00627904199064,110.81531804200495,['semicolon'],[0.651118082983885],117.27832970803138,118.18729870801326,1,,,,,,samuel,001,right,2022_Sep_13_1631,fingertaping-exp,2021.2.3,60.217943907248646,
low,1,0,2,2,2,5,0,5,0,,,,,,['semicolon'],111.3000714170048,112.0150875839754,113.79954029200599,['semicolon'],[0.6753128750133328],120.2621369160479,121.18353808304528,1,,,,,,samuel,001,right,2022_Sep_13_1631,fingertaping-exp,2021.2.3,60.217943907248646,
low,1,0,2,2,2,6,0,6,0,,,,,,['j'],114.31690045900177,114.92604674998438,116.82447450002655,['j'],[0.5554338749498129],123.29404587502358,124.08350450004218,1,,,,,,samuel,001,right,2022_Sep_13_1631,fingertaping-exp,2021.2.3,60.217943907248646,
low,1,0,2,2,2,7,0,7,0,,,,,,['l'],117.23854054202093,119.43133312498685,119.74132662499323,['l'],[2.1614800420356914],126.20002204104094,128.58973095804686,1,,,,,,samuel,001,right,2022_Sep_13_1631,fingertaping-exp,2021.2.3,60.217943907248646,
low,1,0,2,2,2,8,0,8,0,,,,,,['j'],120.1668216669932,121.09917795902584,122.66667083400534,['j'],[0.8971057920134626],129.12844925001264,130.2701201250311,1,,,,,,samuel,001,right,2022_Sep_13_1631,fingertaping-exp,2021.2.3,60.217943907248646,
low,1,0,2,2,2,9,0,9,0,,,,,,['semicolon'],123.13361224997789,123.87880912498804,125.65300341701368,['semicolon'],[0.714072041970212],132.09547891601687,133.0453129580128,1,,,,,,samuel,001,right,2022_Sep_13_1631,fingertaping-exp,2021.2.3,60.217943907248646,
low,1,0,2,2,2,,,,,0,0,0,0,,,,,,,,,,,100.0,low,4.0,None,None,samuel,001,right,2022_Sep_13_1631,fingertaping-exp,2021.2.3,60.217943907248646,
low,1,0,2,2,2,,,,,1,0,1,0,,,,,,,,,,,,,None,2.0,None,samuel,001,right,2022_Sep_13_1631,fingertaping-exp,2021.2.3,60.217943907248646,
low,1,0,2,2,2,,,,,2,0,2,0,,,,,,,,,,,,,None,None,4.0,samuel,001,right,2022_Sep_13_1631,fingertaping-exp,2021.2.3,60.217943907248646,
low,1,0,3,3,3,0,0,0,0,,,,,,['k'],134.70196258398937,135.39937674999237,137.20781920902664,['k'],[0.6468120839563198],143.66679837502306,144.57799908303423,1,,,,,,samuel,001,right,2022_Sep_13_1631,fingertaping-exp,2021.2.3,60.217943907248646,
low,1,0,3,3,3,1,0,1,0,,,,,,['k'],137.61650904198177,138.28289279202,140.13161937502446,['k'],[0.6262462080339901],146.58339779102243,147.46077779104235,1,,,,,,samuel,001,right,2022_Sep_13_1631,fingertaping-exp,2021.2.3,60.217943907248646,
low,1,0,3,3,3,2,0,2,0,,,,,,['k'],140.64866370899836,141.29749008401996,143.1650975419907,['k'],[0.605557165981736],149.61214504099917,150.46062520804117,1,,,,,,samuel,001,right,2022_Sep_13_1631,fingertaping-exp,2021.2.3,60.217943907248646,
low,1,0,3,3,3,3,0,3,0,,,,,,['semicolon'],143.6004845420248,144.36492491699755,146.11507300002268,['semicolon'],[0.7081500829663128],152.56551958300406,153.537573291047,1,,,,,,samuel,001,right,2022_Sep_13_1631,fingertaping-exp,2021.2.3,60.217943907248646,
low,1,0,3,3,3,4,0,4,0,,,,,,['l'],146.52233916701516,147.3827235000208,149.02439666702412,['l'],[0.8139096659724601],155.48377150000306,156.545574415999,1,,,,,,samuel,001,right,2022_Sep_13_1631,fingertaping-exp,2021.2.3,60.217943907248646,
low,1,0,3,3,3,5,0,5,0,,,,,,['k'],149.4669530839892,150.21514004201163,151.96661075000884,['k'],[0.7012233749846928],158.42846462503076,159.38387191604124,1,,,,,,samuel,001,right,2022_Sep_13_1631,fingertaping-exp,2021.2.3,60.217943907248646,
low,1,0,3,3,3,6,0,6,0,,,,,,['k'],152.40032766701188,153.08316333399853,154.900104209024,['k'],[0.648810125014279],161.36091500002658,162.260684125009,1,,,,,,samuel,001,right,2022_Sep_13_1631,fingertaping-exp,2021.2.3,60.217943907248646,
low,1,0,3,3,3,7,0,7,0,,,,,,['l'],155.33182575000683,156.61503187502967,157.83213458402315,['l'],[1.2532225829781964],164.29251566604944,165.78389929101104,1,,,,,,samuel,001,right,2022_Sep_13_1631,fingertaping-exp,2021.2.3,60.217943907248646,
low,1,0,3,3,3,8,0,8,0,,,,,,['k'],158.30037504201755,158.92615420900984,160.7985528749996,['k'],[0.589135666959919],167.26063800003612,168.0835590410279,1,,,,,,samuel,001,right,2022_Sep_13_1631,fingertaping-exp,2021.2.3,60.217943907248646,
low,1,0,3,3,3,9,0,9,0,,,,,,['k'],161.30035600002157,161.99928733397974,163.79841120901983,['k'],[0.6609521670034155],170.26083804102382,171.17043333302718,1,,,,,,samuel,001,right,2022_Sep_13_1631,fingertaping-exp,2021.2.3,60.217943907248646,
low,1,0,3,3,3,,,,,0,0,0,0,,,,,,,,,,,100.0,low,4.0,None,None,samuel,001,right,2022_Sep_13_1631,fingertaping-exp,2021.2.3,60.217943907248646,
low,1,0,3,3,3,,,,,1,0,1,0,,,,,,,,,,,,,None,None,4.0,samuel,001,right,2022_Sep_13_1631,fingertaping-exp,2021.2.3,60.217943907248646,
low,1,0,3,3,3,,,,,2,0,2,0,,,,,,,,,,,,,None,2.0,None,samuel,001,right,2022_Sep_13_1631,fingertaping-exp,2021.2.3,60.217943907248646,
low,1,0,4,4,4,0,0,0,0,,,,,,['l'],172.2011149590253,173.1655747090117,174.7004934590077,['l'],[0.9278713749954477],181.1619722910109,182.34548804099904,1,,,,,,samuel,001,right,2022_Sep_13_1631,fingertaping-exp,2021.2.3,60.217943907248646,
low,1,0,4,4,4,1,0,1,0,,,,,,['l'],175.19904158398276,176.0149937919923,177.69929520902224,['l'],[0.7781625420320779],184.15972591604805,185.18724133301293,1,,,,,,samuel,001,right,2022_Sep_13_1631,fingertaping-exp,2021.2.3,60.217943907248646,
low,1,0,4,4,4,2,0,2,0,,,,,,['j'],178.1997108340147,178.9263850839925,180.69889287499245,['j'],[0.6927459580474533],187.15716291603167,188.08364812500076,1,,,,,,samuel,001,right,2022_Sep_13_1631,fingertaping-exp,2021.2.3,60.217943907248646,
low,1,0,4,4,4,3,0,3,0,,,,,,['j'],181.182829959027,181.76495962502668,183.68308375001652,['j'],[0.5379067089525051],190.14401475002524,190.94518125004834,1,,,,,,samuel,001,right,2022_Sep_13_1631,fingertaping-exp,2021.2.3,60.217943907248646,
low,1,0,4,4,4,4,0,4,0,,,,,,['j'],184.16941816697363,184.71497370902216,186.682314375008,['j'],[0.49727200000779703],193.1446357910172,193.88359650003258,1,,,,,,samuel,001,right,2022_Sep_13_1631,fingertaping-exp,2021.2.3,60.217943907248646,
low,1,0,4,4,4,5,0,5,0,,,,,,['l'],187.1654880840215,187.99939795897808,189.68173579202266,['l'],[0.7974218750023283],196.12451475003036,197.17072029103292,1,,,,,,samuel,001,right,2022_Sep_13_1631,fingertaping-exp,2021.2.3,60.217943907248646,
low,1,0,4,4,4,6,0,6,0,,,,,,['l'],190.1155008340138,190.72721933398861,192.6241585839889,['l'],[0.5786530409823172],199.07935666601406,199.895925290999,1,,,,,,samuel,001,right,2022_Sep_13_1631,fingertaping-exp,2021.2.3,60.217943907248646,
low,1,0,4,4,4,7,0,7,0,,,,,,['k'],193.06564291700488,193.71492125000805,195.56684649997624,['k'],[0.6086197500117123],202.0253589580534,202.87072620802792,1,,,,,,samuel,001,right,2022_Sep_13_1631,fingertaping-exp,2021.2.3,60.217943907248646,
low,1,0,4,4,4,8,0,8,0,,,,,,['k'],196.06669675000012,197.0827608749969,198.5740252499818,['k'],[0.949892083008308],205.0441426250036,206.26068145805039,1,,,,,,samuel,001,right,2022_Sep_13_1631,fingertaping-exp,2021.2.3,60.217943907248646,
low,1,0,4,4,4,9,0,9,0,,,,,,['semicolon'],199.08328195899958,200.01490820897743,201.58184499997878,['semicolon'],[0.892891708004754],208.04511612502392,209.17013508302625,1,,,,,,samuel,001,right,2022_Sep_13_1631,fingertaping-exp,2021.2.3,60.217943907248646,
low,1,0,4,4,4,,,,,0,0,0,0,,,,,,,,,,,100.0,low,None,2.0,None,samuel,001,right,2022_Sep_13_1631,fingertaping-exp,2021.2.3,60.217943907248646,
low,1,0,4,4,4,,,,,1,0,1,0,,,,,,,,,,,,,None,None,4.0,samuel,001,right,2022_Sep_13_1631,fingertaping-exp,2021.2.3,60.217943907248646,
low,1,0,4,4,4,,,,,2,0,2,0,,,,,,,,,,,,,4.0,None,None,samuel,001,right,2022_Sep_13_1631,fingertaping-exp,2021.2.3,60.217943907248646,
medium,1,0,5,5,5,0,0,0,0,,,,,,"['k', 'l', 'semicolon']",210.58539654198103,212.01486016699346,213.08294470899273,"['k', 'l', 'semicolon']","[1.3922938330215402, 1.3922938330215402, 1.4403240420506336]",219.54578850005055,221.1835500410525,1,,,,,,samuel,001,right,2022_Sep_13_1631,fingertaping-exp,2021.2.3,60.217943907248646,
medium,1,0,5,5,5,1,0,1,0,,,,,,"['l', 'semicolon']",213.5493081670138,214.81493220897391,216.04864433401963,"['semicolon', 'l']","[1.2293673750245944, 1.2293673750245944]",222.50875154102687,223.98385562503245,1,,,,,,samuel,001,right,2022_Sep_13_1631,fingertaping-exp,2021.2.3,60.217943907248646,
medium,1,0,5,5,5,2,0,2,0,,,,,,"['l', 'semicolon', 'j']",216.520015874994,217.99740395898698,219.02414633397711,"['l', 'j', 'semicolon']","[1.4121721250121482, 1.4761673329630867, 1.5241706249653362]",225.49397825001506,227.153439583024,1,,,,,,samuel,001,right,2022_Sep_13_1631,fingertaping-exp,2021.2.3,60.217943907248646,
medium,1,0,5,5,5,3,0,3,0,,,,,,"['semicolon', 'l']",219.46710895898286,220.45598425000207,221.96518704202026,"['semicolon', 'l']","[0.9581114579923451, 0.9581114579923451]",228.42804691602942,229.6285544160055,1,,,,,,samuel,001,right,2022_Sep_13_1631,fingertaping-exp,2021.2.3,60.217943907248646,
medium,1,0,5,5,5,4,0,4,0,,,,,,"['l', 'semicolon', 'k']",222.39946429198608,223.69900149997557,224.89921829197556,"['k', 'l', 'semicolon']","[1.2605153330368921, 1.2605153330368921, 1.2765221670269966]",231.35766029101796,232.86092583305435,1,,,,,,samuel,001,right,2022_Sep_13_1631,fingertaping-exp,2021.2.3,60.217943907248646,
medium,1,0,5,5,5,5,0,5,0,,,,,,"['semicolon', 'k', 'l']",225.3159291250049,226.51493795902934,227.83207258401671,"['k', 'l', 'semicolon']","[1.1569315830129199, 1.1729268329800107, 1.2209092080011033]",234.27729241602356,235.67076233302942,1,,,,,,samuel,001,right,2022_Sep_13_1631,fingertaping-exp,2021.2.3,60.217943907248646,
medium,1,0,5,5,5,6,0,6,0,,,,,,"['semicolon', 'j', 'l']",228.2487290839781,229.81492558401078,230.74853912502294,"['l', 'semicolon', 'j']","[1.518634290958289, 1.5506337079568766, 1.5666192079661414]",237.2115970000159,238.9700559580233,1,,,,,,samuel,001,right,2022_Sep_13_1631,fingertaping-exp,2021.2.3,60.217943907248646,
medium,1,0,5,5,5,7,0,7,0,,,,,,"['semicolon', 'k', 'j']",231.21557624998968,233.4822948339861,233.73194866697304,"['k', 'j', 'semicolon']","[2.2354796250001527, 2.2674945410108194, 2.3314917500247248]",240.17477487504948,242.65336258301977,1,,,,,,samuel,001,right,2022_Sep_13_1631,fingertaping-exp,2021.2.3,60.217943907248646,
medium,1,0,5,5,5,8,0,8,0,,,,,,"['semicolon', 'j']",234.14927287498722,235.1785907499725,236.65071162499953,"['j', 'semicolon']","[0.9986249590292573, 1.0146154169924557]",243.107621666044,244.3454765000497,1,,,,,,samuel,001,right,2022_Sep_13_1631,fingertaping-exp,2021.2.3,60.217943907248646,
medium,1,0,5,5,5,9,0,9,0,,,,,,"['j', 'l']",237.11595541698625,238.34824687498622,239.6319998750114,"['l', 'j']","[1.1822729999548756, 1.2142629169975407]",246.07602491602302,247.51267387502594,1,,,,,,samuel,001,right,2022_Sep_13_1631,fingertaping-exp,2021.2.3,60.217943907248646,
medium,1,0,5,5,5,,,,,0,0,0,0,,,,,,,,,,,100.0,medium,4.0,None,None,samuel,001,right,2022_Sep_13_1631,fingertaping-exp,2021.2.3,60.217943907248646,
medium,1,0,5,5,5,,,,,1,0,1,0,,,,,,,,,,,,,None,None,4.0,samuel,001,right,2022_Sep_13_1631,fingertaping-exp,2021.2.3,60.217943907248646,
medium,1,0,5,5,5,,,,,2,0,2,0,,,,,,,,,,,,,None,3.0,None,samuel,001,right,2022_Sep_13_1631,fingertaping-exp,2021.2.3,60.217943907248646,
medium,1,0,6,6,6,0,0,0,0,,,,,,"['j', 'k']",247.41665112500777,248.48171233397443,249.92450945900055,"['j', 'k']","[1.0063925830181688, 1.0063925830181688]",256.37996687501436,257.6439979580464,1,,,,,,samuel,001,right,2022_Sep_13_1631,fingertaping-exp,2021.2.3,60.217943907248646,
medium,1,0,6,6,6,1,0,1,0,,,,,,"['j', 'k', 'l']",250.36902870901395,251.39913595898543,252.8824956670287,"['k', 'l', 'j']","[0.9701102920225821, 0.9701102920225821, 0.9861137500265613]",259.3442533330526,260.5606801250251,1,,,,,,samuel,001,right,2022_Sep_13_1631,fingertaping-exp,2021.2.3,60.217943907248646,
medium,1,0,6,6,6,2,0,2,0,,,,,,"['j', 'k', 'l']",253.31540800002404,254.15425199997844,255.819500875019,"['j', 'k', 'l']","[0.8084391249576584, 0.8084391249576584, 0.8084391249576584]",262.2739284580457,263.3290319580119,1,,,,,,samuel,001,right,2022_Sep_13_1631,fingertaping-exp,2021.2.3,60.217943907248646,
medium,1,0,6,6,6,3,0,3,0,,,,,,"['k', 'l', 'semicolon']",256.28599449998,257.76496729202336,258.79927929199766,"['k', 'semicolon', 'l']","[1.421363957982976, 1.437348874984309, 1.4533251249813475]",265.2610589580145,266.9448002910358,1,,,,,,samuel,001,right,2022_Sep_13_1631,fingertaping-exp,2021.2.3,60.217943907248646,
medium,1,0,6,6,6,4,0,4,0,,,,,,"['l', 'j']",259.267685000028,260.32757145899814,261.7651780419983,"['l', 'j']","[1.0302862499956973, 1.0622577920439653]",268.2281593330554,269.49423162505263,1,,,,,,samuel,001,right,2022_Sep_13_1631,fingertaping-exp,2021.2.3,60.217943907248646,
medium,1,0,6,6,6,5,0,5,0,,,,,,"['semicolon', 'l']",262.21539137500804,263.3482986249728,264.7318718340248,"['semicolon', 'l']","[1.0922831670031883, 1.1082492499845102]",271.17421225004364,272.5282342080027,1,,,,,,samuel,001,right,2022_Sep_13_1631,fingertaping-exp,2021.2.3,60.217943907248646,
medium,1,0,6,6,6,6,0,6,0,,,,,,"['j', 'semicolon', 'k']",265.19955308397766,267.08250920899445,267.70014920900576,"['j', 'semicolon', 'k', 'l']","[1.8346095419838093, 1.8825938749941997, 1.8825938749941997, 1.8825938749941997]",274.1598738330067,276.260747708031,0,,,,,,samuel,001,right,2022_Sep_13_1631,fingertaping-exp,2021.2.3,60.217943907248646,
medium,1,0,6,6,6,7,0,7,0,,,,,,"['j', 'k', 'semicolon']",268.2222295840038,270.6826570840203,270.72646658401936,['k'],[2.4108250419958495],277.1836510000285,None,0,,,,,,samuel,001,right,2022_Sep_13_1631,fingertaping-exp,2021.2.3,60.217943907248646,
medium,1,0,6,6,6,8,0,8,0,,,,,,"['semicolon', 'j', 'k']",271.1486876250128,272.198282708996,273.64845887501724,"['semicolon', 'j', 'k']","[1.0029819160117768, 1.0029819160117768, 1.0029819160117768]",280.11150529101724,281.353646750038,1,,,,,,samuel,001,right,2022_Sep_13_1631,fingertaping-exp,2021.2.3,60.217943907248646,
medium,1,0,6,6,6,9,0,9,0,,,,,,"['j', 'k']",274.10277087497525,275.02542000001995,276.6150607499876,"['j', 'k']","[0.8691394579946063, 0.8691394579946063]",283.0773814160493,284.21151850000024,1,,,,,,samuel,001,right,2022_Sep_13_1631,fingertaping-exp,2021.2.3,60.217943907248646,
medium,1,0,6,6,6,,,,,0,0,0,0,,,,,,,,,,,80.0,medium,None,None,4.0,samuel,001,right,2022_Sep_13_1631,fingertaping-exp,2021.2.3,60.217943907248646,
medium,1,0,6,6,6,,,,,1,0,1,0,,,,,,,,,,,,,4.0,None,None,samuel,001,right,2022_Sep_13_1631,fingertaping-exp,2021.2.3,60.217943907248646,
medium,1,0,6,6,6,,,,,2,0,2,0,,,,,,,,,,,,,None,3.0,None,samuel,001,right,2022_Sep_13_1631,fingertaping-exp,2021.2.3,60.217943907248646,
medium,1,0,7,7,7,0,0,0,0,,,,,,"['j', 'k', 'l']",285.5329184170114,286.68259908398613,288.03216158400755,"['k', 'l', 'j']","[1.1165711670182645, 1.1165711670182645, 1.1325215000542812]",294.49408295803005,295.86101575003704,1,,,,,,samuel,001,right,2022_Sep_13_1631,fingertaping-exp,2021.2.3,60.217943907248646,
medium,1,0,7,7,7,1,0,1,0,,,,,,"['semicolon', 'k']",288.53202570899157,290.47815970901866,291.0319699170068,"['k', 'semicolon']","[1.9122708329814486, 1.9602055000141263]",297.4904176249984,299.6335842910339,1,,,,,,samuel,001,right,2022_Sep_13_1631,fingertaping-exp,2021.2.3,60.217943907248646,
medium,1,0,7,7,7,2,0,2,0,,,,,,"['k', 'l']",291.4658642919967,292.48267683398444,293.9817119590007,"['k', 'l']","[0.9615023339865729, 0.9615023339865729]",300.4251481660176,301.6605978750158,1,,,,,,samuel,001,right,2022_Sep_13_1631,fingertaping-exp,2021.2.3,60.217943907248646,
medium,1,0,7,7,7,3,0,3,0,,,,,,"['semicolon', 'l', 'k']",294.3990413750289,295.565009834012,296.8984507499845,"['semicolon', 'k', 'l']","[1.1181506660068408, 1.1181506660068408, 1.1181506660068408]",303.3565016660141,304.74501116602914,1,,,,,,samuel,001,right,2022_Sep_13_1631,fingertaping-exp,2021.2.3,60.217943907248646,
medium,1,0,7,7,7,4,0,4,0,,,,,,"['semicolon', 'l', 'j']",297.33220808400074,298.7659111249959,299.8483507090132,"['j', 'semicolon']","[1.3821742499712855, 1.3981614579679444]",306.2925211660331,307.9282715830486,0,,,,,,samuel,001,right,2022_Sep_13_1631,fingertaping-exp,2021.2.3,60.217943907248646,
medium,1,0,7,7,7,5,0,5,0,,,,,,"['j', 'semicolon']",300.28273329202784,301.2824292500154,302.78278358402895,"['semicolon', 'j']","[0.9426722910138778, 0.9426722910138778]",309.24403483304195,310.44483887503156,1,,,,,,samuel,001,right,2022_Sep_13_1631,fingertaping-exp,2021.2.3,60.217943907248646,
medium,1,0,7,7,7,6,0,6,0,,,,,,"['l', 'k']",303.2845503750141,304.41036858398,305.7915454590111,"['k', 'l']","[1.0777501669945195, 1.0937596670119092]",312.2609397500055,313.57708087505307,1,,,,,,samuel,001,right,2022_Sep_13_1631,fingertaping-exp,2021.2.3,60.217943907248646,
medium,1,0,7,7,7,7,0,7,0,,,,,,"['j', 'semicolon', 'l']",306.26759704202414,308.14831399999093,308.765222291986,"['semicolon', 'l', 'j']","[1.8384525829460472, 1.8384525829460472, 1.8864629169693217]",315.22826954105403,317.32809541601455,1,,,,,,samuel,001,right,2022_Sep_13_1631,fingertaping-exp,2021.2.3,60.217943907248646,
medium,1,0,7,7,7,8,0,8,0,,,,,,"['semicolon', 'j']",309.2320712499786,310.4389793750015,311.7483736249851,"['j', 'semicolon']","[1.180142999975942, 1.2121823750203475]",318.1906057500164,319.62830520805437,1,,,,,,samuel,001,right,2022_Sep_13_1631,fingertaping-exp,2021.2.3,60.217943907248646,
medium,1,0,7,7,7,9,0,9,0,,,,,,"['j', 'semicolon']",312.2152717499994,313.17918645899044,314.71518408402335,"['j', 'semicolon']","[0.9181211660034023, 0.982114750018809]",321.1726510000299,322.34497987502255,1,,,,,,samuel,001,right,2022_Sep_13_1631,fingertaping-exp,2021.2.3,60.217943907248646,
medium,1,0,7,7,7,,,,,0,0,0,0,,,,,,,,,,,90.0,medium,None,None,4.0,samuel,001,right,2022_Sep_13_1631,fingertaping-exp,2021.2.3,60.217943907248646,
medium,1,0,7,7,7,,,,,1,0,1,0,,,,,,,,,,,,,None,3.0,None,samuel,001,right,2022_Sep_13_1631,fingertaping-exp,2021.2.3,60.217943907248646,
medium,1,0,7,7,7,,,,,2,0,2,0,,,,,,,,,,,,,4.0,None,None,samuel,001,right,2022_Sep_13_1631,fingertaping-exp,2021.2.3,60.217943907248646,
medium,1,0,8,8,8,0,0,0,0,,,,,,"['semicolon', 'k']",323.6161707090214,326.0383741669939,326.1186383339809,"['k', 'semicolon']","[2.3948155000107363, 2.4108380409888923]",332.5760384160094,None,1,,,,,,samuel,001,right,2022_Sep_13_1631,fingertaping-exp,2021.2.3,60.217943907248646,
medium,1,0,8,8,8,1,0,1,0,,,,,,"['l', 'semicolon', 'k']",326.6155449170037,328.39926037500845,329.13181470899144,"['k', 'semicolon', 'l']","[1.7468024580157362, 1.7627897080383264, 1.7627897080383264]",335.57607283303514,337.57049716601614,1,,,,,,samuel,001,right,2022_Sep_13_1631,fingertaping-exp,2021.2.3,60.217943907248646,
medium,1,0,8,8,8,2,0,2,0,,,,,,"['l', 'j', 'semicolon']",329.6033276669914,331.3994345840183,332.10765029198956,"['l', 'semicolon', 'j']","[1.7373384580132551, 1.7533514170208946, 1.7533514170208946]",338.5775418750127,340.57049233303405,1,,,,,,samuel,001,right,2022_Sep_13_1631,fingertaping-exp,2021.2.3,60.217943907248646,
medium,1,0,8,8,8,3,0,3,0,,,,,,"['j', 'l', 'k']",332.51553558401065,333.89917783398414,335.0316106249811,"['k', 'l', 'j']","[1.348109959042631, 1.348109959042631, 1.3641287500504404]",341.47880020801676,343.0607475830475,1,,,,,,samuel,001,right,2022_Sep_13_1631,fingertaping-exp,2021.2.3,60.217943907248646,
medium,1,0,8,8,8,4,0,4,0,,,,,,"['j', 'k', 'semicolon']",335.50227095902665,337.9274405000033,338.0151753749815,['k'],[2.3810931670013815],344.4778670000378,None,0,,,,,,samuel,001,right,2022_Sep_13_1631,fingertaping-exp,2021.2.3,60.217943907248646,
medium,1,0,8,8,8,5,0,5,0,,,,,,"['semicolon', 'j']",338.4487761670025,339.7482864590129,340.9650066670147,"['j', 'semicolon']","[1.2553041250212118, 1.2872845000238158]",347.4116424579988,348.92826829099795,1,,,,,,samuel,001,right,2022_Sep_13_1631,fingertaping-exp,2021.2.3,60.217943907248646,
medium,1,0,8,8,8,6,0,6,0,,,,,,"['semicolon', 'l']",341.4492409169907,342.65459300001385,343.9649825000088,"['semicolon', 'l']","[1.1683243340230547, 1.1683243340230547]",350.41062458301894,351.82831137505127,1,,,,,,samuel,001,right,2022_Sep_13_1631,fingertaping-exp,2021.2.3,60.217943907248646,
medium,1,0,8,8,8,7,0,7,0,,,,,,"['l', 'j']",344.4153093339992,345.406722499989,346.91512470901944,"['l', 'j']","[0.9559885000344366, 0.9877219169866294]",353.3752316660248,354.5677581250202,1,,,,,,samuel,001,right,2022_Sep_13_1631,fingertaping-exp,2021.2.3,60.217943907248646,
medium,1,0,8,8,8,8,0,8,0,,,,,,"['j', 'semicolon', 'l']",347.4055285840295,348.865942000004,349.9152722500148,"['l', 'semicolon', 'j']","[1.4040658330195583, 1.468068291025702, 1.468068291025702]",356.36694804101717,358.028345208033,1,,,,,,samuel,001,right,2022_Sep_13_1631,fingertaping-exp,2021.2.3,60.217943907248646,
medium,1,0,8,8,8,9,0,9,0,,,,,,"['l', 'j', 'k']",350.40079316700576,351.44824304198846,352.8985506250174,"['k', 'l', 'j']","[1.0019206670112908, 1.0179432079894468, 1.0499344170093536]",359.3610901250504,360.62873608304653,1,,,,,,samuel,001,right,2022_Sep_13_1631,fingertaping-exp,2021.2.3,60.217943907248646,
medium,1,0,8,8,8,,,,,0,0,0,0,,,,,,,,,,,90.0,medium,4.0,None,None,samuel,001,right,2022_Sep_13_1631,fingertaping-exp,2021.2.3,60.217943907248646,
medium,1,0,8,8,8,,,,,1,0,1,0,,,,,,,,,,,,,None,3.0,None,samuel,001,right,2022_Sep_13_1631,fingertaping-exp,2021.2.3,60.217943907248646,
medium,1,0,8,8,8,,,,,2,0,2,0,,,,,,,,,,,,,None,None,4.0,samuel,001,right,2022_Sep_13_1631,fingertaping-exp,2021.2.3,60.217943907248646,
medium,1,0,9,9,9,0,0,0,0,,,,,,"['l', 'k']",360.8994625839987,362.0604936670279,363.4151268340065,"['k', 'l']","[1.110067292000167, 1.126121042005252]",369.86101654102094,371.22836020804243,1,,,,,,samuel,001,right,2022_Sep_13_1631,fingertaping-exp,2021.2.3,60.217943907248646,
medium,1,0,9,9,9,1,0,1,0,,,,,,"['l', 'k', 'semicolon']",363.8824847090291,365.9983356670127,366.3982846669969,"['k', 'l', 'semicolon']","[2.0826949159963988, 2.0826949159963988, 2.194710166018922]",372.84041870804504,375.1537626250065,1,,,,,,samuel,001,right,2022_Sep_13_1631,fingertaping-exp,2021.2.3,60.217943907248646,
medium,1,0,9,9,9,2,0,2,0,,,,,,"['semicolon', 'l', 'k']",366.832057334017,368.01119933399605,369.349097792001,"['k', 'l', 'semicolon']","[1.1437090419931337, 1.1596920840092935, 1.2077121670008637]",375.79543925001053,377.19538325001486,1,,,,,,samuel,001,right,2022_Sep_13_1631,fingertaping-exp,2021.2.3,60.217943907248646,
medium,1,0,9,9,9,3,0,3,0,,,,,,"['semicolon', 'k']",369.79940216697287,371.5482309170184,372.3149438750115,"['k', 'semicolon']","[1.6963083330192603, 1.792293582984712]",378.7628473750083,380.7281195000396,1,,,,,,samuel,001,right,2022_Sep_13_1631,fingertaping-exp,2021.2.3,60.217943907248646,
medium,1,0,9,9,9,4,0,4,0,,,,,,"['j', 'l', 'k']",372.78766258398537,374.12286416697316,375.29126512497896,"['j', 'k', 'l']","[1.290134082955774, 1.290134082955774, 1.290134082955774]",381.76104700000724,383.29541150003206,1,,,,,,samuel,001,right,2022_Sep_13_1631,fingertaping-exp,2021.2.3,60.217943907248646,
medium,1,0,9,9,9,5,0,5,0,,,,,,"['j', 'semicolon']",375.73865354200825,376.9920536670252,378.2500029170187,"['semicolon', 'j']","[1.2157810420030728, 1.2157810420030728]",384.69939300004626,386.16093200002797,1,,,,,,samuel,001,right,2022_Sep_13_1631,fingertaping-exp,2021.2.3,60.217943907248646,
medium,1,0,9,9,9,6,0,6,0,,,,,,"['k', 'j']",378.69935841701226,379.96280216699233,381.2152228340274,"['k', 'j']","[1.2324406249681488, 1.2484363339608535]",387.658768541005,389.1275073750294,1,,,,,,samuel,001,right,2022_Sep_13_1631,fingertaping-exp,2021.2.3,60.217943907248646,
medium,1,0,9,9,9,7,0,7,0,,,,,,"['j', 'l']",381.65027070901124,382.6656465419801,384.16607420897344,"['l', 'j']","[0.9672836249810643, 0.9833006670232862]",390.6119308330235,391.8279873750289,1,,,,,,samuel,001,right,2022_Sep_13_1631,fingertaping-exp,2021.2.3,60.217943907248646,
medium,1,0,9,9,9,8,0,8,0,,,,,,"['j', 'l', 'semicolon']",384.6486294590286,386.92741379200015,387.1485552919912,"['l', 'j', 'semicolon']","[2.2394468749989755, 2.2554717919556424, 2.4154480419820175]",393.6117970000487,None,1,,,,,,samuel,001,right,2022_Sep_13_1631,fingertaping-exp,2021.2.3,60.217943907248646,
medium,1,0,9,9,9,9,0,9,0,,,,,,"['j', 'semicolon', 'k']",387.5860726250103,,390.0984436250292,None,,396.5612254580483,None,0,,,,,,samuel,001,right,2022_Sep_13_1631,fingertaping-exp,2021.2.3,60.217943907248646,
medium,1,0,9,9,9,,,,,0,0,0,0,,,,,,,,,,,90.0,medium,None,3.0,None,samuel,001,right,2022_Sep_13_1631,fingertaping-exp,2021.2.3,60.217943907248646,
medium,1,0,9,9,9,,,,,1,0,1,0,,,,,,,,,,,,,None,None,4.0,samuel,001,right,2022_Sep_13_1631,fingertaping-exp,2021.2.3,60.217943907248646,
medium,1,0,9,9,9,,,,,2,0,2,0,,,,,,,,,,,,,4.0,None,None,samuel,001,right,2022_Sep_13_1631,fingertaping-exp,2021.2.3,60.217943907248646,
high,1,0,10,10,10,0,0,0,0,,,,,,"['d', 'a', 'f', 'j', 'k']",398.16587808402255,399.9492605419946,400.6819161250023,"['d', 'f', 'j', 'k', 'l', 'a']","[1.7484310410218313, 1.8124282080098055, 1.8124282080098055, 1.8124282080098055, 1.8124282080098055, 1.8124282080098055]",407.1269040410407,409.11740137502784,0,,,,,,samuel,001,right,2022_Sep_13_1631,fingertaping-exp,2021.2.3,60.217943907248646,
high,1,0,10,10,10,1,0,1,0,,,,,,"['s', 'f', 'j', 'semicolon']",401.0860211669933,403.21506079199025,403.59156408399576,"['s', 'f', 'semicolon', 'j']","[2.0624159579747356, 2.0624159579747356, 2.0944086659583263, 2.0944086659583263]",410.060922958015,412.39526250003837,1,,,,,,samuel,001,right,2022_Sep_13_1631,fingertaping-exp,2021.2.3,60.217943907248646,
high,1,0,10,10,10,2,0,2,0,,,,,,"['d', 'f', 'l', 'k', 'j']",404.0491712919902,405.8982420840184,406.55035929201404,"['d', 'f', 'j', 'k', 'l']","[1.818980082985945, 1.8350391249987297, 1.8509900409844704, 1.8509900409844704, 1.8509900409844704]",413.0083815410035,415.0540125000407,1,,,,,,samuel,001,right,2022_Sep_13_1631,fingertaping-exp,2021.2.3,60.217943907248646,
high,1,0,10,10,10,3,0,3,0,,,,,,"['f', 'd', 'semicolon', 'l']",407.01597750000656,,409.521272959013,None,,415.9746030830429,None,0,,,,,,samuel,001,right,2022_Sep_13_1631,fingertaping-exp,2021.2.3,60.217943907248646,
high,1,0,10,10,10,4,0,4,0,,,,,,"['a', 'f', 'k', 'l', 'semicolon']",409.9505799590261,411.8259590420057,412.4502699589939,"['f', 'd', 'a', 'semicolon', 'j', 'l']","[1.8357038330286741, 1.8357038330286741, 1.8357038330286741, 1.867679874994792, 1.867679874994792, 1.867679874994792]",418.91171775001567,420.9950309160049,0,,,,,,samuel,001,right,2022_Sep_13_1631,fingertaping-exp,2021.2.3,60.217943907248646,
high,1,0,10,10,10,5,0,5,0,,,,,,"['a', 'd', 'j', 'l', 'k']",412.9318179169786,,415.44844854198163,None,,421.89602041605394,None,0,,,,,,samuel,001,right,2022_Sep_13_1631,fingertaping-exp,2021.2.3,60.217943907248646,
high,1,0,10,10,10,6,0,6,0,,,,,,"['a', 'f', 'l', 'k', 'j']",415.90280845901,,418.4046081670094,None,,424.877317416016,None,0,,,,,,samuel,001,right,2022_Sep_13_1631,fingertaping-exp,2021.2.3,60.217943907248646,
high,1,0,10,10,10,7,0,7,0,,,,,,"['a', 's', 'semicolon', 'k']",418.83792991697555,420.4494717500056,421.33805812499486,"['s', 'l', 'a']","[1.5571692090015858, 1.5731727090314962, 1.5731727090314962]",427.79830750002293,429.6201617080369,0,,,,,,samuel,001,right,2022_Sep_13_1631,fingertaping-exp,2021.2.3,60.217943907248646,
high,1,0,10,10,10,8,0,8,0,,,,,,"['d', 'a', 'f', 'l', 'semicolon']",421.78235049999785,424.2813945420203,424.29856145899976,['d'],[2.468106040963903],430.7433848330402,None,0,,,,,,samuel,001,right,2022_Sep_13_1631,fingertaping-exp,2021.2.3,60.217943907248646,
high,1,0,10,10,10,9,0,9,0,,,,,,"['s', 'd', 'a', 'semicolon', 'l', 'j']",424.7384568339912,426.69504825002514,427.2482773339725,"['d', 'j', 'k', 'a', 'f']","[1.9167936670128256, 1.9647822080296464, 1.9647822080296464, 1.9647822080296464, 2.0288054579868913]",433.710710125044,435.85423887503566,0,,,,,,samuel,001,right,2022_Sep_13_1631,fingertaping-exp,2021.2.3,60.217943907248646,
high,1,0,10,10,10,,,,,0,0,0,0,,,,,,,,,,,20.0,high,None,None,4.0,samuel,001,right,2022_Sep_13_1631,fingertaping-exp,2021.2.3,60.217943907248646,
high,1,0,10,10,10,,,,,1,0,1,0,,,,,,,,,,,,,4.0,None,None,samuel,001,right,2022_Sep_13_1631,fingertaping-exp,2021.2.3,60.217943907248646,
high,1,0,10,10,10,,,,,2,0,2,0,,,,,,,,,,,,,None,4.0,None,samuel,001,right,2022_Sep_13_1631,fingertaping-exp,2021.2.3,60.217943907248646,
high,1,0,11,11,11,0,0,0,0,,,,,,"['d', 'f', 'semicolon', 'l', 'j']",435.95053087500855,438.2982072089799,438.4658336249995,"['j', 'd', 'f', 'semicolon', 'l', 's']","[2.314587249944452, 2.314587249944452, 2.3625654579955153, 2.3785696669947356, 2.394637249992229, 2.4746119169867598]",444.9130083330092,None,0,,,,,,samuel,001,right,2022_Sep_13_1631,fingertaping-exp,2021.2.3,60.217943907248646,
high,1,0,11,11,11,1,0,1,0,,,,,,"['s', 'd', 'a', 'j', 'k']",438.9317929170211,,441.4482701669913,None,,447.89613454102073,None,0,,,,,,samuel,001,right,2022_Sep_13_1631,fingertaping-exp,2021.2.3,60.217943907248646,
high,1,0,11,11,11,2,0,2,0,,,,,,"['d', 'a', 'f', 'l', 'semicolon']",441.89906833402347,444.2813837089925,444.3995342919952,"['d', 'f', 'semicolon', 'j', 'l']","[2.350855041993782, 2.3988615840207785, 2.4148458749987185, 2.4148458749987185, 2.4469654170097783]",450.8607784160413,None,0,,,,,,samuel,001,right,2022_Sep_13_1631,fingertaping-exp,2021.2.3,60.217943907248646,
high,1,0,11,11,11,3,0,3,0,,,,,,"['a', 'f', 'd', 'semicolon', 'k', 'j']",444.83209525002167,447.19637191697257,447.35057104198495,"['d', 'j', 'f', 'l']","[2.326677999983076, 2.3427333749714307, 2.3747355829691514, 2.4067154999938793]",453.796940750035,None,0,,,,,,samuel,001,right,2022_Sep_13_1631,fingertaping-exp,2021.2.3,60.217943907248646,
high,1,0,11,11,11,4,0,4,0,,,,,,"['s', 'd', 'f', 'l', 'j', 'semicolon']",447.8006419999874,449.86557650001487,450.30869858397637,"['s', 'd', 'f', 'semicolon', 'j']","[2.0093575000064448, 2.0573881659656763, 2.073377040971536, 2.0893936249776743, 2.0893936249776743]",456.77028329099994,459.04421508300584,0,,,,,,samuel,001,right,2022_Sep_13_1631,fingertaping-exp,2021.2.3,60.217943907248646,
high,1,0,11,11,11,5,0,5,0,,,,,,"['s', 'f', 'j', 'l', 'k']",450.7825821249862,452.8948292090208,453.28191591700306,"['s', 'f', 'l', 'j', 'k']","[2.0793036249815486, 2.0952894170186482, 2.1113110419828445, 2.1432979999808595, 2.1592895839712583]",459.7403932080488,462.0707613750128,1,,,,,,samuel,001,right,2022_Sep_13_1631,fingertaping-exp,2021.2.3,60.217943907248646,
high,1,0,11,11,11,6,0,6,0,,,,,,"['f', 'a', 'j', 'l']",453.73191866697744,455.62787145900074,456.2482678749948,"['f', 'a', 'l', 'j']","[1.843217374989763, 1.843217374989763, 1.8592302500037476, 1.8911967079620808]",462.69648995803436,464.81276733300183,1,,,,,,samuel,001,right,2022_Sep_13_1631,fingertaping-exp,2021.2.3,60.217943907248646,
high,1,0,11,11,11,7,0,7,0,,,,,,"['d', 'f', 'k', 'l']",456.74853358400287,458.8240310419933,459.2657560840016,"['k', 'l', 'd', 's']","[2.043050125008449, 2.043050125008449, 2.043050125008449, 2.075089249992743]",465.7126710830489,467.99408725003013,0,,,,,,samuel,001,right,2022_Sep_13_1631,fingertaping-exp,2021.2.3,60.217943907248646,
high,1,0,11,11,11,8,0,8,0,,,,,,"['d', 'f', 'a', 'semicolon', 'k', 'j']",459.732034375018,461.8655922919861,462.249040041992,"['d', 'f', 'j', 'a', 'semicolon']","[2.0996488749515265, 2.17965645797085, 2.17965645797085, 2.17965645797085, 2.1956828329712152]",468.69607591599924,471.03709579101996,0,,,,,,samuel,001,right,2022_Sep_13_1631,fingertaping-exp,2021.2.3,60.217943907248646,
high,1,0,11,11,11,9,0,9,0,,,,,,"['f', 'a', 'd', 'semicolon', 'k']",462.7823624589946,,465.2984941250179,None,,471.7416814160533,None,0,,,,,,samuel,001,right,2022_Sep_13_1631,fingertaping-exp,2021.2.3,60.217943907248646,
high,1,0,11,11,11,,,,,0,0,0,0,,,,,,,,,,,20.0,high,None,None,4.0,samuel,001,right,2022_Sep_13_1631,fingertaping-exp,2021.2.3,60.217943907248646,
high,1,0,11,11,11,,,,,1,0,1,0,,,,,,,,,,,,,None,5.0,None,samuel,001,right,2022_Sep_13_1631,fingertaping-exp,2021.2.3,60.217943907248646,
high,1,0,11,11,11,,,,,2,0,2,0,,,,,,,,,,,,,4.0,None,None,samuel,001,right,2022_Sep_13_1631,fingertaping-exp,2021.2.3,60.217943907248646,
high,1,0,12,12,12,0,0,0,0,,,,,,"['d', 's', 'k', 'j']",473.88468320900574,476.1149859590223,476.38277270901017,"['s', 'j', 'k', 'd']","[2.1928590410389006, 2.208850125025492, 2.208850125025492, 2.208850125025492]",482.84300208301283,485.2872549580061,1,,,,,,samuel,001,right,2022_Sep_13_1631,fingertaping-exp,2021.2.3,60.217943907248646,
high,1,0,12,12,12,1,0,1,0,,,,,,"['d', 's', 'semicolon', 'k', 'l']",476.8320222920156,478.983206874982,479.3483032499789,"['s', 'k', 'd', 'l']","[2.102991208957974, 2.1190033339662477, 2.1190033339662477, 2.1349972499883734]",485.79683379101334,488.15387325000484,0,,,,,,samuel,001,right,2022_Sep_13_1631,fingertaping-exp,2021.2.3,60.217943907248646,
high,1,0,12,12,12,2,0,2,0,,,,,,"['s', 'a', 'd', 'j', 'k', 'l']",479.81691391702043,482.08148724999046,482.32426437502727,"['s', 'j', 'k', 'l', 'd', 'f', 'a']","[2.224727791035548, 2.224727791035548, 2.224727791035548, 2.224727791035548, 2.224727791035548, 2.272696041036397, 2.336727583024185]",488.7791587910033,491.2403794580023,0,,,,,,samuel,001,right,2022_Sep_13_1631,fingertaping-exp,2021.2.3,60.217943907248646,
high,1,0,12,12,12,3,0,3,0,,,,,,"['s', 'd', 'a', 'semicolon', 'k']",482.73215137497755,,485.24959866702557,None,,491.69563037500484,None,0,,,,,,samuel,001,right,2022_Sep_13_1631,fingertaping-exp,2021.2.3,60.217943907248646,
high,1,0,12,12,12,4,0,4,0,,,,,,"['f', 's', 'd', 'l', 'k', 'semicolon']",485.732234916999,487.81520216702484,488.25088962499285,"['s', 'd', 'k', 'l', 'f', 'j']","[2.035772792005446, 2.0517869170289487, 2.0837633330374956, 2.0837633330374956, 2.099764208018314, 2.099764208018314]",494.69612525001867,496.9947162910248,0,,,,,,samuel,001,right,2022_Sep_13_1631,fingertaping-exp,2021.2.3,60.217943907248646,
high,1,0,12,12,12,5,0,5,0,,,,,,"['d', 's', 'a', 'j', 'l']",488.7154386669863,,491.2318030419992,None,,497.6786938330042,None,0,,,,,,samuel,001,right,2022_Sep_13_1631,fingertaping-exp,2021.2.3,60.217943907248646,
high,1,0,12,12,12,6,0,6,0,,,,,,"['d', 'a', 'l', 'k', 'semicolon']",491.76664137502667,494.065638125001,494.26652595901396,"['k', 'l', 'd', 'a']","[2.260665500012692, 2.260665500012692, 2.260665500012692, 2.260665500012692]",500.7273127910448,None,0,,,,,,samuel,001,right,2022_Sep_13_1631,fingertaping-exp,2021.2.3,60.217943907248646,
high,1,0,12,12,12,7,0,7,0,,,,,,"['a', 's', 'd', 'semicolon', 'l', 'k']",494.799491541984,496.80803295900114,497.29838616697816,"['k', 'd', 'l', 'a']","[1.9812514169607311, 1.9812514169607311, 1.997223457961809, 1.997223457961809]",503.7587627500179,505.97063366603106,0,,,,,,samuel,001,right,2022_Sep_13_1631,fingertaping-exp,2021.2.3,60.217943907248646,
high,1,0,12,12,12,8,0,8,0,,,,,,"['f', 's', 'l', 'k']",497.8156314169755,500.12405187502736,500.3316218749969,"['s', 'k', 'l', 'd']","[2.2745215829927474, 2.2745215829927474, 2.2745215829927474, 2.2745215829927474]",506.77745879103895,None,0,,,,,,samuel,001,right,2022_Sep_13_1631,fingertaping-exp,2021.2.3,60.217943907248646,
high,1,0,12,12,12,9,0,9,0,,,,,,"['a', 's', 'd', 'semicolon', 'l']",500.75104433402885,502.8819195419783,503.2486234169919,"['s', 'k', 'l', 'd', 'a', 'semicolon']","[2.0924855409539305, 2.0924855409539305, 2.0924855409539305, 2.0924855409539305, 2.0924855409539305, 2.1565498749841936]",509.71151245804504,512.044083958026,0,,,,,,samuel,001,right,2022_Sep_13_1631,fingertaping-exp,2021.2.3,60.217943907248646,
high,1,0,12,12,12,,,,,0,0,0,0,,,,,,,,,,,10.0,high,4.0,None,None,samuel,001,right,2022_Sep_13_1631,fingertaping-exp,2021.2.3,60.217943907248646,
high,1,0,12,12,12,,,,,1,0,1,0,,,,,,,,,,,,,None,5.0,None,samuel,001,right,2022_Sep_13_1631,fingertaping-exp,2021.2.3,60.217943907248646,
high,1,0,12,12,12,,,,,2,0,2,0,,,,,,,,,,,,,None,None,4.0,samuel,001,right,2022_Sep_13_1631,fingertaping-exp,2021.2.3,60.217943907248646,
high,1,0,13,13,13,0,0,0,0,,,,,,"['f', 'd', 'a', 'semicolon', 'l', 'j']",511.68293408397585,513.5657048749854,514.1830610840116,"['d', 'semicolon', 'j', 'a', 'f', 'l']","[1.833647417020984, 1.86566650000168, 1.86566650000168, 1.86566650000168, 1.8976482920115814, 1.8976482920115814]",520.6424273330485,522.7441662910278,1,,,,,,samuel,001,right,2022_Sep_13_1631,fingertaping-exp,2021.2.3,60.217943907248646,
high,1,0,13,13,13,1,0,1,0,,,,,,"['s', 'd', 'f', 'l', 'j', 'k']",514.6319907500292,516.2980760000064,517.1490449170233,"['s', 'd', 'j', 'k', 'l', 'f']","[1.6327654999913648, 1.6487429999979213, 1.6807422499987297, 1.6807422499987297, 1.6807422499987297, 1.712803750007879]",523.5953391250223,525.4540807080339,1,,,,,,samuel,001,right,2022_Sep_13_1631,fingertaping-exp,2021.2.3,60.217943907248646,
high,1,0,13,13,13,2,0,2,0,,,,,,"['a', 'f', 'd', 'k', 'j', 'semicolon']",517.5825629999745,,520.0826741249766,None,,526.5421167080058,None,0,,,,,,samuel,001,right,2022_Sep_13_1631,fingertaping-exp,2021.2.3,60.217943907248646,
high,1,0,13,13,13,3,0,3,0,,,,,,"['s', 'f', 'd', 'k', 'semicolon']",520.5158726670197,,523.0315599170281,None,,529.4769326660316,None,0,,,,,,samuel,001,right,2022_Sep_13_1631,fingertaping-exp,2021.2.3,60.217943907248646,
high,1,0,13,13,13,4,0,4,0,,,,,,"['s', 'a', 'd', 'j', 'k', 'l']",523.4823006669758,525.94894750003,525.9986092500039,"['s', 'f', 'j', 'k', 'l', 'd']","[2.436133957991842, 2.436133957991842, 2.436133957991842, 2.436133957991842, 2.436133957991842, 2.436133957991842]",532.4400529580307,None,0,,,,,,samuel,001,right,2022_Sep_13_1631,fingertaping-exp,2021.2.3,60.217943907248646,
high,1,0,13,13,13,5,0,5,0,,,,,,"['s', 'd', 'k', 'l']",526.4993497499963,528.7284332499839,528.998712666973,"['s', 'k', 'l', 'd']","[2.1842406669748016, 2.1842406669748016, 2.1842406669748016, 2.1842406669748016]",535.4599312500213,537.9112090830458,1,,,,,,samuel,001,right,2022_Sep_13_1631,fingertaping-exp,2021.2.3,60.217943907248646,
high,1,0,13,13,13,6,0,6,0,,,,,,"['d', 'a', 'f', 'l', 'k', 'j']",529.4513840419822,531.7482105420204,531.94859824999,"['d', 'k', 'l', 'j', 'f', 'a']","[2.2565495840390213, 2.3045808750321157, 2.3045808750321157, 2.3205697090015747, 2.3365422090282664, 2.3365422090282664]",538.4116438750061,None,1,,,,,,samuel,001,right,2022_Sep_13_1631,fingertaping-exp,2021.2.3,60.217943907248646,
high,1,0,13,13,13,7,0,7,0,,,,,,"['f', 'd', 'k', 'l', 'j']",532.3824687500019,534.1658494999865,534.8826628340175,"['d', 'f', 'j', 'k', 'l']","[1.7425915829953738, 1.7745556670124643, 1.8065509999869391, 1.8065509999869391, 1.8065509999869391]",541.3416733750491,543.3371364580235,1,,,,,,samuel,001,right,2022_Sep_13_1631,fingertaping-exp,2021.2.3,60.217943907248646,
high,1,0,13,13,13,8,0,8,0,,,,,,"['a', 's', 'k', 'semicolon', 'l']",535.3828804590157,537.6982632500003,537.8986251670285,"['s', 'k', 'l', 'a', 'semicolon']","[2.279857749992516, 2.279857749992516, 2.279857749992516, 2.279857749992516, 2.3278703750111163]",544.3403982910095,None,1,,,,,,samuel,001,right,2022_Sep_13_1631,fingertaping-exp,2021.2.3,60.217943907248646,
high,1,0,13,13,13,9,0,9,0,,,,,,"['s', 'f', 'semicolon', 'l']",538.3155880839913,,540.8316253750236,None,,547.2763074160321,None,0,,,,,,samuel,001,right,2022_Sep_13_1631,fingertaping-exp,2021.2.3,60.217943907248646,
high,1,0,13,13,13,,,,,0,0,0,0,,,,,,,,,,,60.0,high,None,5.0,None,samuel,001,right,2022_Sep_13_1631,fingertaping-exp,2021.2.3,60.217943907248646,
high,1,0,13,13,13,,,,,1,0,1,0,,,,,,,,,,,,,None,None,5.0,samuel,001,right,2022_Sep_13_1631,fingertaping-exp,2021.2.3,60.217943907248646,
high,1,0,13,13,13,,,,,2,0,2,0,,,,,,,,,,,,,5.0,None,None,samuel,001,right,2022_Sep_13_1631,fingertaping-exp,2021.2.3,60.217943907248646,
high,1,0,14,14,14,0,0,0,0,,,,,,"['a', 's', 'k', 'l', 'semicolon']",548.0159348750021,549.8291923750076,550.5152958339895,"['s', 'k', 'a', 'l']","[1.7702710420126095, 1.7702710420126095, 1.7702710420126095, 1.786242250003852]",556.9780637910007,558.9957201660145,0,,,,,,samuel,001,right,2022_Sep_13_1631,fingertaping-exp,2021.2.3,60.217943907248646,
high,1,0,14,14,14,1,0,1,0,,,,,,"['d', 's', 'f', 'semicolon', 'j', 'k']",550.9989687500056,553.248313374992,553.4986909999861,"['s', 'f', 'j', 'd', 'semicolon']","[2.2132223750231788, 2.245203082973603, 2.245203082973603, 2.245203082973603, 2.2772075419779867]",559.9591172080254,562.4282310410053,0,,,,,,samuel,001,right,2022_Sep_13_1631,fingertaping-exp,2021.2.3,60.217943907248646,
high,1,0,14,14,14,2,0,2,0,,,,,,"['d', 's', 'semicolon', 'k']",553.9987865419826,,556.5152343339869,None,,562.9571852910449,None,0,,,,,,samuel,001,right,2022_Sep_13_1631,fingertaping-exp,2021.2.3,60.217943907248646,
high,1,0,14,14,14,3,0,3,0,,,,,,"['f', 'd', 's', 'l', 'j']",556.9671812090091,558.7654183750274,559.4818229589728,"['s', 'd', 'f', 'j', 'l', 'k']","[1.7319520420278423, 1.7319520420278423, 1.7479761670110747, 1.7799638750148006, 1.7799638750148006, 1.7959670830168761]",565.9444116660161,567.9281100830412,0,,,,,,samuel,001,right,2022_Sep_13_1631,fingertaping-exp,2021.2.3,60.217943907248646,
high,1,0,14,14,14,4,0,4,0,,,,,,"['d', 'f', 'l', 'semicolon']",559.9825389999896,562.3816717920126,562.4984197919839,"['d', 'f', 'k', 'l', 'semicolon']","[2.367358624993358, 2.3993689169874415, 2.4153838329948485, 2.431438292027451, 2.4473705000127666]",568.9410321250325,None,0,,,,,,samuel,001,right,2022_Sep_13_1631,fingertaping-exp,2021.2.3,60.217943907248646,
high,1,0,14,14,14,5,0,5,0,,,,,,"['s', 'f', 'a', 'l', 'j', 'semicolon']",562.9155951249995,564.9826510840212,565.4155229169992,"['s', 'f', 'j', 'a', 'l']","[2.0221634169574827, 2.0381739999866113, 2.0701873329817317, 2.0701873329817317, 2.086205749947112]",571.8782447500271,574.1610437910422,0,,,,,,samuel,001,right,2022_Sep_13_1631,fingertaping-exp,2021.2.3,60.217943907248646,
high,1,0,14,14,14,6,0,6,0,,,,,,"['s', 'd', 'a', 'semicolon', 'j', 'k']",565.8666049169842,568.265858000028,568.3819119589753,"['s', 'd', 'j', 'k', 'a']","[2.3689103749929927, 2.3689103749929927, 2.400914333004039, 2.400914333004039, 2.464913375035394]",574.8275138330064,None,0,,,,,,samuel,001,right,2022_Sep_13_1631,fingertaping-exp,2021.2.3,60.217943907248646,
high,1,0,14,14,14,7,0,7,0,,,,,,"['f', 'd', 'j', 'semicolon', 'k']",568.8155826249858,570.9106247089803,571.3316847920069,"['d', 'f', 'k', 'j']","[2.0595837919972837, 2.1235763340373524, 2.1235763340373524, 2.139602624985855]",577.7768797080498,580.0958414580091,0,,,,,,samuel,001,right,2022_Sep_13_1631,fingertaping-exp,2021.2.3,60.217943907248646,
high,1,0,14,14,14,8,0,8,0,,,,,,"['s', 'f', 'l', 'k', 'semicolon']",571.7823448749841,574.0658389169839,574.2818948749918,"['s', 'f', 'k', 'semicolon']","[2.245184125029482, 2.261139542039018, 2.261139542039018, 2.2771758750313893]",580.7433150830329,583.2273542500334,0,,,,,,samuel,001,right,2022_Sep_13_1631,fingertaping-exp,2021.2.3,60.217943907248646,
high,1,0,14,14,14,9,0,9,0,,,,,,"['d', 'a', 's', 'semicolon', 'j', 'l']",574.7319471670198,576.9954363750294,577.2484008339816,"['s', 'semicolon', 'j', 'a']","[2.2207500000367872, 2.3327346660080366, 2.3327346660080366, 2.3327346660080366]",583.69574491604,586.1699813750456,0,,,,,,samuel,001,right,2022_Sep_13_1631,fingertaping-exp,2021.2.3,60.217943907248646,
high,1,0,14,14,14,,,,,0,0,0,0,,,,,,,,,,,0.0,high,None,5.0,None,samuel,001,right,2022_Sep_13_1631,fingertaping-exp,2021.2.3,60.217943907248646,
high,1,0,14,14,14,,,,,1,0,1,0,,,,,,,,,,,,,5.0,None,None,samuel,001,right,2022_Sep_13_1631,fingertaping-exp,2021.2.3,60.217943907248646,
high,1,0,14,14,14,,,,,2,0,2,0,,,,,,,,,,,,,None,None,5.0,samuel,001,right,2022_Sep_13_1631,fingertaping-exp,2021.2.3,60.217943907248646,
