difficulty_level,num_session,num_rand,predataloop.thisRepN,predataloop.thisTrialN,predataloop.thisN,predataloop.thisIndex,level_loop.thisRepN,level_loop.thisTrialN,level_loop.thisN,level_loop.thisIndex,trial_loop.thisRepN,trial_loop.thisTrialN,trial_loop.thisN,trial_loop.thisIndex,ratings.thisRepN,ratings.thisTrialN,ratings.thisN,ratings.thisIndex,start_time_stamp,correct_key,word_number,word_show,stim_start,press_key_time,stim_end,key_resp.keys,key_resp.corr,key_resp.rt,accuracy,diff,rating_difficulty.response,rating_attention.response,rating_effort.response,participant,replicate,date,expName,psychopyVersion,frameRate,
low,1,10,,,,,0,0,0,0,0,0,0,0,,,,,1663060833156,left,38,void,3.9699453330249526,4.855908708006609,6.4727976670255885,left,1,0.855241000012029,,,,,,samuel,1,2022_Sep_13_1720,Lexical_exp,2021.2.3,None,
low,1,10,,,,,0,0,0,0,1,0,1,0,,,,,,left,128,millions,6.552760708029382,7.401625792030245,9.068679917021655,left,1,0.8207151249516755,,,,,,samuel,1,2022_Sep_13_1720,Lexical_exp,2021.2.3,None,
low,1,10,,,,,0,0,0,0,2,0,2,0,,,,,,right,306,parbines,9.169393958,10.167715208022855,11.668585417035501,right,1,0.9767563749919645,,,,,,samuel,1,2022_Sep_13_1720,Lexical_exp,2021.2.3,None,
low,1,10,,,,,0,0,0,0,3,0,3,0,,,,,,left,133,lights,11.808480125037022,12.835462583054323,14.318529958021827,left,1,0.9853514999849722,,,,,,samuel,1,2022_Sep_13_1720,Lexical_exp,2021.2.3,None,
low,1,10,,,,,0,0,0,0,4,0,4,0,,,,,,right,211,fryep,14.452720708039124,15.367802125052549,16.967856125032995,right,1,0.8877351669943891,,,,,,samuel,1,2022_Sep_13_1720,Lexical_exp,2021.2.3,None,
low,1,10,,,,,0,0,0,0,5,0,5,0,,,,,,left,153,photos,16.985073667019606,17.79212500003632,19.492245208006352,left,1,0.7779767090105452,,,,,,samuel,1,2022_Sep_13_1720,Lexical_exp,2021.2.3,None,
low,1,10,,,,,0,0,0,0,6,0,6,0,,,,,,right,233,moetic,19.71165574999759,20.634927583043464,22.21897320804419,right,1,0.8933302080258727,,,,,,samuel,1,2022_Sep_13_1720,Lexical_exp,2021.2.3,None,
low,1,10,,,,,0,0,0,0,7,0,7,0,,,,,,right,312,toulee,22.308521917031612,23.24036141700344,24.818441292038187,right,1,0.8943871250376105,,,,,,samuel,1,2022_Sep_13_1720,Lexical_exp,2021.2.3,None,
low,1,10,,,,,0,0,0,0,8,0,8,0,,,,,,left,71,rape,24.90409904200351,25.658353583014105,27.408439042046666,left,1,0.7227478330023587,,,,,,samuel,1,2022_Sep_13_1720,Lexical_exp,2021.2.3,None,
low,1,10,,,,,0,0,0,0,9,0,9,0,,,,,,right,364,incirs,27.436040375032462,28.343088207999244,29.952151042001788,right,1,0.8822239579749294,,,,,,samuel,1,2022_Sep_13_1720,Lexical_exp,2021.2.3,None,
low,1,10,,,,,0,0,0,0,,,,,0,0,0,0,,,,,,,,,,,100.0,low,None,None,4.0,samuel,1,2022_Sep_13_1720,Lexical_exp,2021.2.3,None,
low,1,10,,,,,0,0,0,0,,,,,1,0,1,0,,,,,,,,,,,,,None,4.0,None,samuel,1,2022_Sep_13_1720,Lexical_exp,2021.2.3,None,
low,1,10,,,,,0,0,0,0,,,,,2,0,2,0,,,,,,,,,,,,,1.0,None,None,samuel,1,2022_Sep_13_1720,Lexical_exp,2021.2.3,None,
low,1,10,,,,,0,1,1,1,0,0,0,0,,,,,,left,72,leadership,46.11910941702081,47.167414125055075,48.617751458019484,left,1,1.0144938749726862,,,,,,samuel,1,2022_Sep_13_1720,Lexical_exp,2021.2.3,None,
low,1,10,,,,,0,1,1,1,1,0,1,0,,,,,,right,188,pabs,48.718309792049695,49.65710954205133,51.21794637502171,right,1,0.9186377089936286,,,,,,samuel,1,2022_Sep_13_1720,Lexical_exp,2021.2.3,None,
low,1,10,,,,,0,1,1,1,2,0,2,0,,,,,,left,59,bike,51.23865883302642,51.99015050003072,53.73461208300432,left,1,0.7296162499696948,,,,,,samuel,1,2022_Sep_13_1720,Lexical_exp,2021.2.3,None,
low,1,10,,,,,0,1,1,1,3,0,3,0,,,,,,left,76,acid,53.8519641670282,54.70452991704224,56.35108070803108,left,1,0.8417227910249494,,,,,,samuel,1,2022_Sep_13_1720,Lexical_exp,2021.2.3,None,
low,1,10,,,,,0,1,1,1,4,0,4,0,,,,,,left,166,strings,56.43442120804684,57.10120829200605,58.934569042001385,left,1,0.6438757499563508,,,,,,samuel,1,2022_Sep_13_1720,Lexical_exp,2021.2.3,None,
low,1,10,,,,,0,1,1,1,5,0,5,0,,,,,,right,259,poid,59.00238729204284,59.95712329202797,61.50211579201277,right,1,0.9303904579719529,,,,,,samuel,1,2022_Sep_13_1720,Lexical_exp,2021.2.3,None,
low,1,10,,,,,0,1,1,1,6,0,6,0,,,,,,left,92,pleasure,61.57134554203367,62.39069075003499,64.06779720803024,left,1,0.8018678340013139,,,,,,samuel,1,2022_Sep_13_1720,Lexical_exp,2021.2.3,None,
low,1,10,,,,,0,1,1,1,7,0,7,0,,,,,,right,281,fring,64.1677484170068,65.13841804204276,66.68427216704004,right,1,0.9475897090160288,,,,,,samuel,1,2022_Sep_13_1720,Lexical_exp,2021.2.3,None,
low,1,10,,,,,0,1,1,1,8,0,8,0,,,,,,right,203,heserved,66.83496275002835,68.0571910830331,69.33468416699907,right,1,1.2028122500050813,,,,,,samuel,1,2022_Sep_13_1720,Lexical_exp,2021.2.3,None,
low,1,10,,,,,0,1,1,1,9,0,9,0,,,,,,right,302,pelibacy,69.53642845799914,70.63400175003335,72.03425250004511,right,1,1.0764210830093361,,,,,,samuel,1,2022_Sep_13_1720,Lexical_exp,2021.2.3,None,
low,1,10,,,,,0,1,1,1,,,,,0,0,0,0,,,,,,,,,,,100.0,low,None,4.0,None,samuel,1,2022_Sep_13_1720,Lexical_exp,2021.2.3,None,
low,1,10,,,,,0,1,1,1,,,,,1,0,1,0,,,,,,,,,,,,,None,None,4.0,samuel,1,2022_Sep_13_1720,Lexical_exp,2021.2.3,None,
low,1,10,,,,,0,1,1,1,,,,,2,0,2,0,,,,,,,,,,,,,2.0,None,None,samuel,1,2022_Sep_13_1720,Lexical_exp,2021.2.3,None,
low,1,10,,,,,0,2,2,2,0,0,0,0,,,,,,right,357,Lomanesque,81.45822441700147,82.61734937503934,83.96732220804552,right,1,1.1208102920209058,,,,,,samuel,1,2022_Sep_13_1720,Lexical_exp,2021.2.3,None,
low,1,10,,,,,0,2,2,2,1,0,1,0,,,,,,right,349,mugfer,84.03429100004723,85.07002150005428,86.53439895802876,right,1,1.0129852920072153,,,,,,samuel,1,2022_Sep_13_1720,Lexical_exp,2021.2.3,None,
low,1,10,,,,,0,2,2,2,2,0,2,0,,,,,,left,171,routine,86.61930950003443,87.3735047079972,89.11775812500855,left,1,0.7223008340224624,,,,,,samuel,1,2022_Sep_13_1720,Lexical_exp,2021.2.3,None,
low,1,10,,,,,0,2,2,2,3,0,3,0,,,,,,left,34,species,89.2349116250407,89.99057195801288,91.73442829202395,left,1,0.7392022080020979,,,,,,samuel,1,2022_Sep_13_1720,Lexical_exp,2021.2.3,None,
low,1,10,,,,,0,2,2,2,4,0,4,0,,,,,,right,287,glotting,91.93485137500102,93.10083120805211,94.43452737503685,right,1,1.1442057500244118,,,,,,samuel,1,2022_Sep_13_1720,Lexical_exp,2021.2.3,None,
low,1,10,,,,,0,2,2,2,5,0,5,0,,,,,,right,280,Janoce,94.53946100000758,95.55738512502285,97.03433816705365,right,1,0.9983860829961486,,,,,,samuel,1,2022_Sep_13_1720,Lexical_exp,2021.2.3,None,
low,1,10,,,,,0,2,2,2,6,0,6,0,,,,,,right,199,sengry,97.13467666704673,98.07381545804674,99.63450116704917,right,1,0.9198489999980666,,,,,,samuel,1,2022_Sep_13_1720,Lexical_exp,2021.2.3,None,
low,1,10,,,,,0,2,2,2,7,0,7,0,,,,,,left,70,afternoon,99.72195050003938,100.63405600003898,102.2187292080489,left,1,0.8868692080141045,,,,,,samuel,1,2022_Sep_13_1720,Lexical_exp,2021.2.3,None,
low,1,10,,,,,0,2,2,2,8,0,8,0,,,,,,left,32,plot,102.31797045801068,103.03911550005432,104.8189874170348,left,1,0.6965290830121376,,,,,,samuel,1,2022_Sep_13_1720,Lexical_exp,2021.2.3,None,
low,1,10,,,,,0,2,2,2,9,0,9,0,,,,,,right,226,tortheast,105.08449558302527,106.13845450000372,107.58433100004913,right,1,1.023470208980143,,,,,,samuel,1,2022_Sep_13_1720,Lexical_exp,2021.2.3,None,
low,1,10,,,,,0,2,2,2,,,,,0,0,0,0,,,,,,,,,,,100.0,low,None,None,4.0,samuel,1,2022_Sep_13_1720,Lexical_exp,2021.2.3,None,
low,1,10,,,,,0,2,2,2,,,,,1,0,1,0,,,,,,,,,,,,,None,4.0,None,samuel,1,2022_Sep_13_1720,Lexical_exp,2021.2.3,None,
low,1,10,,,,,0,2,2,2,,,,,2,0,2,0,,,,,,,,,,,,,2.0,None,None,samuel,1,2022_Sep_13_1720,Lexical_exp,2021.2.3,None,
low,1,10,,,,,0,3,3,3,0,0,0,0,,,,,,right,237,Grazilian,115.8518050830462,116.72208670800319,118.35116637503961,right,1,0.856863750028424,,,,,,samuel,1,2022_Sep_13_1720,Lexical_exp,2021.2.3,None,
low,1,10,,,,,0,3,3,3,1,0,1,0,,,,,,left,10,balanced,118.49078516702866,119.17386479204288,120.98614350002026,left,1,0.664048874983564,,,,,,samuel,1,2022_Sep_13_1720,Lexical_exp,2021.2.3,None,
low,1,10,,,,,0,3,3,3,2,0,2,0,,,,,,right,264,feaches,121.05094645801,121.95518725004513,123.55108166701393,right,1,0.8920084160054103,,,,,,samuel,1,2022_Sep_13_1720,Lexical_exp,2021.2.3,None,
low,1,10,,,,,0,3,3,3,3,0,3,0,,,,,,right,311,egceeded,123.63444670801982,125.00554054201348,126.12329179199878,right,1,1.3497302500181831,,,,,,samuel,1,2022_Sep_13_1720,Lexical_exp,2021.2.3,None,
low,1,10,,,,,0,3,3,3,4,0,4,0,,,,,,right,231,tolsed,126.13950124999974,127.77431408304255,128.63423191703623,right,1,1.6061383750056848,,,,,,samuel,1,2022_Sep_13_1720,Lexical_exp,2021.2.3,None,
low,1,10,,,,,0,3,3,3,5,0,5,0,,,,,,left,102,spread,128.86800645804033,129.91749845800223,131.36772516701603,left,1,1.0265052079921588,,,,,,samuel,1,2022_Sep_13_1720,Lexical_exp,2021.2.3,None,
low,1,10,,,,,0,3,3,3,6,0,6,0,,,,,,left,115,packs,131.49078616703628,132.43835633300478,133.98459758301033,left,1,0.9277825410244986,,,,,,samuel,1,2022_Sep_13_1720,Lexical_exp,2021.2.3,None,
low,1,10,,,,,0,3,3,3,7,0,7,0,,,,,,right,269,lummit,134.070744208002,134.93907675001537,136.56763450003928,right,1,0.8409418330411427,,,,,,samuel,1,2022_Sep_13_1720,Lexical_exp,2021.2.3,None,
low,1,10,,,,,0,3,3,3,8,0,8,0,,,,,,left,164,recognize,136.8587128330255,137.52338108303957,139.35201758303447,left,1,0.6500723329954781,,,,,,samuel,1,2022_Sep_13_1720,Lexical_exp,2021.2.3,None,
low,1,10,,,,,0,3,3,3,9,0,9,0,,,,,,right,316,aschduke,139.52271395805292,140.52152391703567,142.01761237502797,right,1,0.9751386659918353,,,,,,samuel,1,2022_Sep_13_1720,Lexical_exp,2021.2.3,None,
low,1,10,,,,,0,3,3,3,,,,,0,0,0,0,,,,,,,,,,,100.0,low,None,None,4.0,samuel,1,2022_Sep_13_1720,Lexical_exp,2021.2.3,None,
low,1,10,,,,,0,3,3,3,,,,,1,0,1,0,,,,,,,,,,,,,None,4.0,None,samuel,1,2022_Sep_13_1720,Lexical_exp,2021.2.3,None,
low,1,10,,,,,0,3,3,3,,,,,2,0,2,0,,,,,,,,,,,,,2.0,None,None,samuel,1,2022_Sep_13_1720,Lexical_exp,2021.2.3,None,
low,1,10,,,,,0,4,4,4,0,0,0,0,,,,,,left,35,category,150.62006629200187,151.38461816700874,153.11787450005068,left,1,0.741111958050169,,,,,,samuel,1,2022_Sep_13_1720,Lexical_exp,2021.2.3,None,
low,1,10,,,,,0,4,4,4,1,0,1,0,,,,,,right,336,Sahaza,153.18449441704433,154.07383787503932,155.68828125001164,right,1,0.8591262500267476,,,,,,samuel,1,2022_Sep_13_1720,Lexical_exp,2021.2.3,None,
low,1,10,,,,,0,4,4,4,2,0,2,0,,,,,,left,107,desk,155.7181147080264,156.66767920803977,158.21850850002375,left,1,0.9305407920037396,,,,,,samuel,1,2022_Sep_13_1720,Lexical_exp,2021.2.3,None,
low,1,10,,,,,0,4,4,4,3,0,3,0,,,,,,right,209,tesdar,158.25138058303855,159.1734856670373,160.7506687080022,right,1,0.9082955420017242,,,,,,samuel,1,2022_Sep_13_1720,Lexical_exp,2021.2.3,None,
low,1,10,,,,,0,4,4,4,4,0,4,0,,,,,,left,46,fork,160.81788845802657,161.62200683302945,163.3180089580128,left,1,0.7907555000274442,,,,,,samuel,1,2022_Sep_13_1720,Lexical_exp,2021.2.3,None,
low,1,10,,,,,0,4,4,4,5,0,5,0,,,,,,left,69,hanging,163.41874154203106,164.2377704170067,165.91782062500715,left,1,0.7872699580038898,,,,,,samuel,1,2022_Sep_13_1720,Lexical_exp,2021.2.3,None,
low,1,10,,,,,0,4,4,4,6,0,6,0,,,,,,right,282,hedwing,166.05176662502345,167.22157016705023,168.551059874997,right,1,1.155544999986887,,,,,,samuel,1,2022_Sep_13_1720,Lexical_exp,2021.2.3,None,
low,1,10,,,,,0,4,4,4,7,0,7,0,,,,,,right,370,seft,168.61880920804106,169.99021254200488,171.117834417033,right,1,1.3474136249860749,,,,,,samuel,1,2022_Sep_13_1720,Lexical_exp,2021.2.3,None,
low,1,10,,,,,0,4,4,4,8,0,8,0,,,,,,right,214,theck,171.23526241700165,172.35701179201715,173.7342830420239,right,1,1.1083082919940352,,,,,,samuel,1,2022_Sep_13_1720,Lexical_exp,2021.2.3,None,
low,1,10,,,,,0,4,4,4,9,0,9,0,,,,,,left,124,brother,173.78653366700746,174.66737133305287,176.28451391705312,left,1,0.8520819999976084,,,,,,samuel,1,2022_Sep_13_1720,Lexical_exp,2021.2.3,None,
low,1,10,,,,,0,4,4,4,,,,,0,0,0,0,,,,,,,,,,,100.0,low,None,None,4.0,samuel,1,2022_Sep_13_1720,Lexical_exp,2021.2.3,None,
low,1,10,,,,,0,4,4,4,,,,,1,0,1,0,,,,,,,,,,,,,None,4.0,None,samuel,1,2022_Sep_13_1720,Lexical_exp,2021.2.3,None,
low,1,10,,,,,0,4,4,4,,,,,2,0,2,0,,,,,,,,,,,,,2.0,None,None,samuel,1,2022_Sep_13_1720,Lexical_exp,2021.2.3,None,
medium,1,10,,,,,0,5,5,5,0,0,0,0,,,,,,left,16,priority,183.8205920420005,184.7509777500527,186.3189465420437,left,1,0.8996231250348501,,,,,,samuel,1,2022_Sep_13_1720,Lexical_exp,2021.2.3,None,
medium,1,10,,,,,0,5,5,5,1,0,1,0,,,,,,right,317,necrophale,186.5363739580498,187.61874754203018,189.035379958048,right,1,1.0530132499989122,,,,,,samuel,1,2022_Sep_13_1720,Lexical_exp,2021.2.3,None,
medium,1,10,,,,,0,5,5,5,2,0,2,0,,,,,,left,37,returned,189.2206095000147,190.01750983303646,191.72039583302103,left,1,0.7635234579793178,,,,,,samuel,1,2022_Sep_13_1720,Lexical_exp,2021.2.3,None,
medium,1,10,,,,,0,5,5,5,3,0,3,0,,,,,,left,94,listing,191.85235762502998,192.98589858302148,194.35250141704455,left,1,1.0980062499875203,,,,,,samuel,1,2022_Sep_13_1720,Lexical_exp,2021.2.3,None,
medium,1,10,,,,,0,5,5,5,4,0,4,0,,,,,,right,308,gorded,194.66011737502413,195.7676400420023,197.1675638750312,right,1,1.057473791996017,,,,,,samuel,1,2022_Sep_13_1720,Lexical_exp,2021.2.3,None,
medium,1,10,,,,,0,5,5,5,5,0,5,0,,,,,,right,223,goosastep,197.3195690420107,198.75078370800475,199.81866687501315,right,1,1.382659249997232,,,,,,samuel,1,2022_Sep_13_1720,Lexical_exp,2021.2.3,None,
medium,1,10,,,,,0,5,5,5,6,0,6,0,,,,,,right,299,dedgehog,199.98527670803014,201.45089733303757,202.48417991702445,left,0,1.4202042079996318,,,,,,samuel,1,2022_Sep_13_1720,Lexical_exp,2021.2.3,None,
medium,1,10,,,,,0,5,5,5,7,0,7,0,,,,,,right,239,breathas,202.76791470800526,204.08407804201124,205.26820575003512,right,1,1.2760453749797307,,,,,,samuel,1,2022_Sep_13_1720,Lexical_exp,2021.2.3,None,
medium,1,10,,,,,0,5,5,5,8,0,8,0,,,,,,right,199,eulogazed,205.3525030000019,206.5675724170287,207.85126754204975,right,1,1.1811521669733338,,,,,,samuel,1,2022_Sep_13_1720,Lexical_exp,2021.2.3,None,
medium,1,10,,,,,0,5,5,5,9,0,9,0,,,,,,left,82,logical,208.08588266704464,208.91805754200323,210.5855096669984,left,1,0.792075666016899,,,,,,samuel,1,2022_Sep_13_1720,Lexical_exp,2021.2.3,None,
medium,1,10,,,,,0,5,5,5,,,,,0,0,0,0,,,,,,,,,,,90.0,medium,None,4.0,None,samuel,1,2022_Sep_13_1720,Lexical_exp,2021.2.3,None,
medium,1,10,,,,,0,5,5,5,,,,,1,0,1,0,,,,,,,,,,,,,None,None,4.0,samuel,1,2022_Sep_13_1720,Lexical_exp,2021.2.3,None,
medium,1,10,,,,,0,5,5,5,,,,,2,0,2,0,,,,,,,,,,,,,2.0,None,None,samuel,1,2022_Sep_13_1720,Lexical_exp,2021.2.3,None,
medium,1,10,,,,,0,6,6,6,0,0,0,0,,,,,,right,336,fravity,219.3201603750349,220.26746554201236,221.81952175003244,right,1,0.9114022919675335,,,,,,samuel,1,2022_Sep_13_1720,Lexical_exp,2021.2.3,None,
medium,1,10,,,,,0,6,6,6,1,0,1,0,,,,,,right,353,rapimt,221.95245175005402,223.4182819170528,224.45092137501342,right,1,1.42797249997966,,,,,,samuel,1,2022_Sep_13_1720,Lexical_exp,2021.2.3,None,
medium,1,10,,,,,0,6,6,6,2,0,2,0,,,,,,left,130,exciting,224.6365305830259,225.401714000036,227.13570170802996,left,1,0.7280901249614544,,,,,,samuel,1,2022_Sep_13_1720,Lexical_exp,2021.2.3,None,
medium,1,10,,,,,0,6,6,6,3,0,3,0,,,,,,right,365,noderates,227.25129225000273,228.20138566702371,229.75154375005513,right,1,0.9136918330332264,,,,,,samuel,1,2022_Sep_13_1720,Lexical_exp,2021.2.3,None,
medium,1,10,,,,,0,6,6,6,4,0,4,0,,,,,,left,120,beliefs,229.88552708300995,230.7342012920417,232.40185891703004,left,1,0.7990152079728432,,,,,,samuel,1,2022_Sep_13_1720,Lexical_exp,2021.2.3,None,
medium,1,10,,,,,0,6,6,6,5,0,5,0,,,,,,left,167,ignorant,232.4682912499993,233.16741129203,234.9677850830485,left,1,0.665952124982141,,,,,,samuel,1,2022_Sep_13_1720,Lexical_exp,2021.2.3,None,
medium,1,10,,,,,0,6,6,6,6,0,6,0,,,,,,left,24,surprise,235.28477204201045,235.95105029200204,237.7845349170384,left,1,0.633228708000388,,,,,,samuel,1,2022_Sep_13_1720,Lexical_exp,2021.2.3,None,
medium,1,10,,,,,0,6,6,6,7,0,7,0,,,,,,right,290,bierarchy,237.9021053330507,238.9840209170361,240.40244404203258,right,1,1.0393263750011101,,,,,,samuel,1,2022_Sep_13_1720,Lexical_exp,2021.2.3,None,
medium,1,10,,,,,0,6,6,6,8,0,8,0,,,,,,left,109,twenty,240.4857051250292,241.31787095800973,242.98604400001932,left,1,0.7925867080339231,,,,,,samuel,1,2022_Sep_13_1720,Lexical_exp,2021.2.3,None,
medium,1,10,,,,,0,6,6,6,9,0,9,0,,,,,,left,123,planned,243.1362901670509,243.85115300002508,245.63520633301232,left,1,0.6775427089887671,,,,,,samuel,1,2022_Sep_13_1720,Lexical_exp,2021.2.3,None,
medium,1,10,,,,,0,6,6,6,,,,,0,0,0,0,,,,,,,,,,,100.0,medium,2.0,None,None,samuel,1,2022_Sep_13_1720,Lexical_exp,2021.2.3,None,
medium,1,10,,,,,0,6,6,6,,,,,1,0,1,0,,,,,,,,,,,,,None,4.0,None,samuel,1,2022_Sep_13_1720,Lexical_exp,2021.2.3,None,
medium,1,10,,,,,0,6,6,6,,,,,2,0,2,0,,,,,,,,,,,,,None,None,4.0,samuel,1,2022_Sep_13_1720,Lexical_exp,2021.2.3,None,
medium,1,10,,,,,0,7,7,7,0,0,0,0,,,,,,right,208,frig,254.96813716704492,256.25111091701547,257.4679306250182,right,1,1.2366387500078417,,,,,,samuel,1,2022_Sep_13_1720,Lexical_exp,2021.2.3,None,
medium,1,10,,,,,0,7,7,7,1,0,1,0,,,,,,right,306,walliping,257.5515704580466,258.70171779202064,260.05153420800343,right,1,1.1023720420198515,,,,,,samuel,1,2022_Sep_13_1720,Lexical_exp,2021.2.3,None,
medium,1,10,,,,,0,7,7,7,2,0,2,0,,,,,,right,240,dommencing,260.06796870799735,261.15091312502045,262.58515500003705,right,1,1.0318981670425273,,,,,,samuel,1,2022_Sep_13_1720,Lexical_exp,2021.2.3,None,
medium,1,10,,,,,0,7,7,7,3,0,3,0,,,,,,left,165,assistant,262.66904045804404,263.40134116704576,265.16872633300954,left,1,0.6889017500216141,,,,,,samuel,1,2022_Sep_13_1720,Lexical_exp,2021.2.3,None,
medium,1,10,,,,,0,7,7,7,4,0,4,0,,,,,,left,98,wanting,265.31935129204066,265.93408312503016,267.81846925005084,left,1,0.5832034170161933,,,,,,samuel,1,2022_Sep_13_1720,Lexical_exp,2021.2.3,None,
medium,1,10,,,,,0,7,7,7,5,0,5,0,,,,,,right,291,gogging,267.9189554580371,268.9339866670198,270.4186247920152,right,1,0.9758737920201384,,,,,,samuel,1,2022_Sep_13_1720,Lexical_exp,2021.2.3,None,
medium,1,10,,,,,0,7,7,7,6,0,6,0,,,,,,right,294,prallpox,270.76792483305326,271.78588237502845,273.285636833054,right,1,0.9722192089539021,,,,,,samuel,1,2022_Sep_13_1720,Lexical_exp,2021.2.3,None,
medium,1,10,,,,,0,7,7,7,7,0,7,0,,,,,,right,368,tustle,273.5343922920292,274.40222362504574,276.0357380830101,right,1,0.8313353749690577,,,,,,samuel,1,2022_Sep_13_1720,Lexical_exp,2021.2.3,None,
medium,1,10,,,,,0,7,7,7,8,0,8,0,,,,,,left,183,markets,276.16798041702714,276.96744587505236,278.6842682500137,left,1,0.7556635840446688,,,,,,samuel,1,2022_Sep_13_1720,Lexical_exp,2021.2.3,None,
medium,1,10,,,,,0,7,7,7,9,0,9,0,,,,,,right,312,lightuns,278.851470833004,279.7678855000413,281.3517407080508,right,1,0.8747341670095921,,,,,,samuel,1,2022_Sep_13_1720,Lexical_exp,2021.2.3,None,
medium,1,10,,,,,0,7,7,7,,,,,0,0,0,0,,,,,,,,,,,100.0,medium,None,None,4.0,samuel,1,2022_Sep_13_1720,Lexical_exp,2021.2.3,None,
medium,1,10,,,,,0,7,7,7,,,,,1,0,1,0,,,,,,,,,,,,,None,4.0,None,samuel,1,2022_Sep_13_1720,Lexical_exp,2021.2.3,None,
medium,1,10,,,,,0,7,7,7,,,,,2,0,2,0,,,,,,,,,,,,,2.0,None,None,samuel,1,2022_Sep_13_1720,Lexical_exp,2021.2.3,None,
medium,1,10,,,,,0,8,8,8,0,0,0,0,,,,,,left,10,producing,289.5514209580142,290.76735137501964,292.05120937502943,left,1,1.1665214999811724,,,,,,samuel,1,2022_Sep_13_1720,Lexical_exp,2021.2.3,None,
medium,1,10,,,,,0,8,8,8,1,0,1,0,,,,,,right,330,imboed,292.26833687501494,293.25083833304234,294.7684286250151,right,1,0.9459767080261372,,,,,,samuel,1,2022_Sep_13_1720,Lexical_exp,2021.2.3,None,
medium,1,10,,,,,0,8,8,8,2,0,2,0,,,,,,right,304,noontume,294.9681432500365,296.185505542031,297.4678015000536,right,1,1.1812063749530353,,,,,,samuel,1,2022_Sep_13_1720,Lexical_exp,2021.2.3,None,
medium,1,10,,,,,0,8,8,8,3,0,3,0,,,,,,right,203,tymnastic,297.48455458303215,298.6673920000321,299.9854449170525,right,1,1.1360479579889216,,,,,,samuel,1,2022_Sep_13_1720,Lexical_exp,2021.2.3,None,
medium,1,10,,,,,0,8,8,8,4,0,4,0,,,,,,left,62,welfare,300.18583016702905,301.085101417033,302.7019360420527,left,1,0.8510158749995753,,,,,,samuel,1,2022_Sep_13_1720,Lexical_exp,2021.2.3,None,
medium,1,10,,,,,0,8,8,8,5,0,5,0,,,,,,left,1,theatre,302.7678905420471,303.5183000830002,305.26780791702913,left,1,0.7171687089721672,,,,,,samuel,1,2022_Sep_13_1720,Lexical_exp,2021.2.3,None,
medium,1,10,,,,,0,8,8,8,6,0,6,0,,,,,,left,101,laboratory,305.5025876670261,306.30110904201865,308.00209787505446,left,1,0.7519894999568351,,,,,,samuel,1,2022_Sep_13_1720,Lexical_exp,2021.2.3,None,
medium,1,10,,,,,0,8,8,8,7,0,7,0,,,,,,right,212,manaple,308.0514956670231,309.0859960420057,310.5510066670249,right,1,0.9868520409800112,,,,,,samuel,1,2022_Sep_13_1720,Lexical_exp,2021.2.3,None,
medium,1,10,,,,,0,8,8,8,8,0,8,0,,,,,,left,90,genetic,310.68603195803007,311.5674688750296,313.2023160420358,left,1,0.8482493329793215,,,,,,samuel,1,2022_Sep_13_1720,Lexical_exp,2021.2.3,None,
medium,1,10,,,,,0,8,8,8,9,0,9,0,,,,,,right,305,roosest,313.3679767080466,314.26773862499977,315.86751741700573,right,1,0.8543737910222262,,,,,,samuel,1,2022_Sep_13_1720,Lexical_exp,2021.2.3,None,
medium,1,10,,,,,0,8,8,8,,,,,0,0,0,0,,,,,,,,,,,100.0,medium,2.0,None,None,samuel,1,2022_Sep_13_1720,Lexical_exp,2021.2.3,None,
medium,1,10,,,,,0,8,8,8,,,,,1,0,1,0,,,,,,,,,,,,,None,None,4.0,samuel,1,2022_Sep_13_1720,Lexical_exp,2021.2.3,None,
medium,1,10,,,,,0,8,8,8,,,,,2,0,2,0,,,,,,,,,,,,,None,4.0,None,samuel,1,2022_Sep_13_1720,Lexical_exp,2021.2.3,None,
medium,1,10,,,,,0,9,9,9,0,0,0,0,,,,,,right,221,blapping,323.61923558299895,324.55078375001904,326.1178636670229,right,1,0.89259712502826,,,,,,samuel,1,2022_Sep_13_1720,Lexical_exp,2021.2.3,None,
medium,1,10,,,,,0,9,9,9,1,0,1,0,,,,,,right,360,Vulcon,326.3197765420191,327.185557000048,328.8177315830253,right,1,0.8351869159960188,,,,,,samuel,1,2022_Sep_13_1720,Lexical_exp,2021.2.3,None,
medium,1,10,,,,,0,9,9,9,2,0,2,0,,,,,,left,11,village,328.9359792500036,329.7342913750326,331.4343687920482,left,1,0.7595594159793109,,,,,,samuel,1,2022_Sep_13_1720,Lexical_exp,2021.2.3,None,
medium,1,10,,,,,0,9,9,9,3,0,3,0,,,,,,right,359,asbitrated,331.4515094170347,332.3918945000041,333.9510274170316,right,1,0.9150937919621356,,,,,,samuel,1,2022_Sep_13_1720,Lexical_exp,2021.2.3,None,
medium,1,10,,,,,0,9,9,9,4,0,4,0,,,,,,left,21,Russia,334.1691162500065,334.934228542028,336.6677118750522,left,1,0.7338632920291275,,,,,,samuel,1,2022_Sep_13_1720,Lexical_exp,2021.2.3,None,
medium,1,10,,,,,0,9,9,9,5,0,5,0,,,,,,left,186,elemental,336.93463158304803,337.6676382080186,339.4350984580233,left,1,0.6955944999936037,,,,,,samuel,1,2022_Sep_13_1720,Lexical_exp,2021.2.3,None,
medium,1,10,,,,,0,9,9,9,6,0,6,0,,,,,,right,193,overwark,339.620243708021,340.6343118750374,342.11810495803365,right,1,0.9728182920371182,,,,,,samuel,1,2022_Sep_13_1720,Lexical_exp,2021.2.3,None,
medium,1,10,,,,,0,9,9,9,7,0,7,0,,,,,,right,327,glatypus,342.1858649170026,343.38404870801605,344.68498854205245,right,1,1.1565034169470891,,,,,,samuel,1,2022_Sep_13_1720,Lexical_exp,2021.2.3,None,
medium,1,10,,,,,0,9,9,9,8,0,8,0,,,,,,right,194,imkbottle,344.8189328330336,345.83430829201825,347.31770504201995,right,1,0.9722558750072494,,,,,,samuel,1,2022_Sep_13_1720,Lexical_exp,2021.2.3,None,
medium,1,10,,,,,0,9,9,9,9,0,9,0,,,,,,right,280,Atgentina,347.5697516250075,348.5341225420125,350.0675755420234,right,1,0.930768457998056,,,,,,samuel,1,2022_Sep_13_1720,Lexical_exp,2021.2.3,None,
medium,1,10,,,,,0,9,9,9,,,,,0,0,0,0,,,,,,,,,,,100.0,medium,None,None,4.0,samuel,1,2022_Sep_13_1720,Lexical_exp,2021.2.3,None,
medium,1,10,,,,,0,9,9,9,,,,,1,0,1,0,,,,,,,,,,,,,None,4.0,None,samuel,1,2022_Sep_13_1720,Lexical_exp,2021.2.3,None,
medium,1,10,,,,,0,9,9,9,,,,,2,0,2,0,,,,,,,,,,,,,2.0,None,None,samuel,1,2022_Sep_13_1720,Lexical_exp,2021.2.3,None,
high,1,10,,,,,0,10,10,10,0,0,0,0,,,,,,left,24,statistics,358.6202681250288,359.63425983302295,361.1187234580284,left,1,0.9843683340004645,,,,,,samuel,1,2022_Sep_13_1720,Lexical_exp,2021.2.3,None,
high,1,10,,,,,0,10,10,10,1,0,1,0,,,,,,right,197,multicalir,361.23583783302456,362.1674253750243,363.7343205830548,right,1,0.8991474999929778,,,,,,samuel,1,2022_Sep_13_1720,Lexical_exp,2021.2.3,None,
high,1,10,,,,,0,10,10,10,2,0,2,0,,,,,,right,205,astidote,363.9517464580131,365.1339208330028,366.4509043750004,right,1,1.142856209015008,,,,,,samuel,1,2022_Sep_13_1720,Lexical_exp,2021.2.3,None,
high,1,10,,,,,0,10,10,10,3,0,3,0,,,,,,left,83,quotes,366.8037365420023,367.56875320803374,369.3032190000522,left,1,0.7165060000261292,,,,,,samuel,1,2022_Sep_13_1720,Lexical_exp,2021.2.3,None,
high,1,10,,,,,0,10,10,10,4,0,4,0,,,,,,right,209,ethimists,369.3062162080314,370.41831733303843,371.80285391700454,right,1,1.081123917014338,,,,,,samuel,1,2022_Sep_13_1720,Lexical_exp,2021.2.3,None,
high,1,10,,,,,0,10,10,10,5,0,5,0,,,,,,right,192,lawmal,371.93593316699844,372.7677263750229,374.4346736250445,right,1,0.7997356249834411,,,,,,samuel,1,2022_Sep_13_1720,Lexical_exp,2021.2.3,None,
high,1,10,,,,,0,10,10,10,6,0,6,0,,,,,,left,156,failure,374.68637966702227,375.30194312502863,377.18722941703163,left,1,0.5758744579507038,,,,,,samuel,1,2022_Sep_13_1720,Lexical_exp,2021.2.3,None,
high,1,10,,,,,0,10,10,10,7,0,7,0,,,,,,right,211,demiss,377.33655191701837,378.28592004202073,379.8344564580475,right,1,0.9038363330182619,,,,,,samuel,1,2022_Sep_13_1720,Lexical_exp,2021.2.3,None,
high,1,10,,,,,0,10,10,10,8,0,8,0,,,,,,right,224,bigamisd,380.03501825005515,381.2508080000407,382.5350270420313,right,1,1.1798360000248067,,,,,,samuel,1,2022_Sep_13_1720,Lexical_exp,2021.2.3,None,
high,1,10,,,,,0,10,10,10,9,0,9,0,,,,,,left,22,billion,382.6361569170258,384.0674928750377,385.1348902080208,left,1,1.4019987079664133,,,,,,samuel,1,2022_Sep_13_1720,Lexical_exp,2021.2.3,None,
high,1,10,,,,,0,10,10,10,,,,,0,0,0,0,,,,,,,,,,,100.0,high,None,4.0,None,samuel,1,2022_Sep_13_1720,Lexical_exp,2021.2.3,None,
high,1,10,,,,,0,10,10,10,,,,,1,0,1,0,,,,,,,,,,,,,None,None,4.0,samuel,1,2022_Sep_13_1720,Lexical_exp,2021.2.3,None,
high,1,10,,,,,0,10,10,10,,,,,2,0,2,0,,,,,,,,,,,,,2.0,None,None,samuel,1,2022_Sep_13_1720,Lexical_exp,2021.2.3,None,
high,1,10,,,,,0,11,11,11,0,0,0,0,,,,,,left,40,compiled,392.6369965420454,393.9018189170165,395.13551737501984,left,1,1.2190393329947256,,,,,,samuel,1,2022_Sep_13_1720,Lexical_exp,2021.2.3,None,
high,1,10,,,,,0,11,11,11,1,0,1,0,,,,,,right,345,despet,395.33501929201884,396.1839807080105,397.834857000038,right,1,0.8080973750329576,,,,,,samuel,1,2022_Sep_13_1720,Lexical_exp,2021.2.3,None,
high,1,10,,,,,0,11,11,11,2,0,2,0,,,,,,left,106,wearing,398.0197517920169,398.86746641702484,400.5194304170436,left,1,0.8128048750222661,,,,,,samuel,1,2022_Sep_13_1720,Lexical_exp,2021.2.3,None,
high,1,10,,,,,0,11,11,11,3,0,3,0,,,,,,right,344,mouthliece,400.602373917005,401.58653229201445,403.1027800000156,right,1,0.949364667001646,,,,,,samuel,1,2022_Sep_13_1720,Lexical_exp,2021.2.3,None,
high,1,10,,,,,0,11,11,11,4,0,4,0,,,,,,right,314,irgratiate,403.2856524170493,405.3510057920357,405.80318795802305,right,1,2.0226172090042382,,,,,,samuel,1,2022_Sep_13_1720,Lexical_exp,2021.2.3,None,
high,1,10,,,,,0,11,11,11,5,0,5,0,,,,,,left,148,cultural,406.018154917052,407.15091191703686,408.5193638750352,left,1,1.0847199999843724,,,,,,samuel,1,2022_Sep_13_1720,Lexical_exp,2021.2.3,None,
high,1,10,,,,,0,11,11,11,6,0,6,0,,,,,,left,174,hierarchy,408.8189618330216,409.8343691670452,411.3358461250318,left,1,0.9715682499809191,,,,,,samuel,1,2022_Sep_13_1720,Lexical_exp,2021.2.3,None,
high,1,10,,,,,0,11,11,11,7,0,7,0,,,,,,right,287,leaknesses,411.5527184579987,412.3858304580208,414.050922000024,left,0,0.804179040947929,,,,,,samuel,1,2022_Sep_13_1720,Lexical_exp,2021.2.3,None,
high,1,10,,,,,0,11,11,11,8,0,8,0,,,,,,left,91,employees,414.1869010000373,415.08553729200503,416.6866054170532,left,1,0.853396457969211,,,,,,samuel,1,2022_Sep_13_1720,Lexical_exp,2021.2.3,None,
high,1,10,,,,,0,11,11,11,9,0,9,0,,,,,,left,63,weren't,416.75215954205487,417.8030456250417,419.25100441701943,left,1,1.0107557500014082,,,,,,samuel,1,2022_Sep_13_1720,Lexical_exp,2021.2.3,None,
high,1,10,,,,,0,11,11,11,,,,,0,0,0,0,,,,,,,,,,,90.0,high,None,None,4.0,samuel,1,2022_Sep_13_1720,Lexical_exp,2021.2.3,None,
high,1,10,,,,,0,11,11,11,,,,,1,0,1,0,,,,,,,,,,,,,2.0,None,None,samuel,1,2022_Sep_13_1720,Lexical_exp,2021.2.3,None,
high,1,10,,,,,0,11,11,11,,,,,2,0,2,0,,,,,,,,,,,,,None,4.0,None,samuel,1,2022_Sep_13_1720,Lexical_exp,2021.2.3,None,
high,1,10,,,,,0,12,12,12,0,0,0,0,,,,,,left,23,satellite,427.98611562501173,428.78408237500116,430.5027004580479,left,1,0.764382665976882,,,,,,samuel,1,2022_Sep_13_1720,Lexical_exp,2021.2.3,None,
high,1,10,,,,,0,12,12,12,1,0,1,0,,,,,,right,198,plazing,430.5859297499992,431.618365042028,433.1008243750548,right,1,0.9958567909779958,,,,,,samuel,1,2022_Sep_13_1720,Lexical_exp,2021.2.3,None,
high,1,10,,,,,0,12,12,12,2,0,2,0,,,,,,left,46,displayed,433.20189700002084,434.05099516705377,435.70254541700706,left,1,0.8135282089933753,,,,,,samuel,1,2022_Sep_13_1720,Lexical_exp,2021.2.3,None,
high,1,10,,,,,0,12,12,12,3,0,3,0,,,,,,left,42,achieve,435.91787591704633,436.6340981250396,438.4187061249977,left,1,0.6725726659642532,,,,,,samuel,1,2022_Sep_13_1720,Lexical_exp,2021.2.3,None,
high,1,10,,,,,0,12,12,12,4,0,4,0,,,,,,left,120,Pascal,438.53487562504597,439.5675590420142,441.0354652920505,left,1,0.9909610829781741,,,,,,samuel,1,2022_Sep_13_1720,Lexical_exp,2021.2.3,None,
high,1,10,,,,,0,12,12,12,5,0,5,0,,,,,,right,363,Fanhattan,441.20307404204505,442.4189268750488,443.70314670802327,right,1,1.1807279590284452,,,,,,samuel,1,2022_Sep_13_1720,Lexical_exp,2021.2.3,None,
high,1,10,,,,,0,12,12,12,6,0,6,0,,,,,,left,11,contribute,443.73526100005256,444.5674203330418,446.2344080830226,left,1,0.7922568749636412,,,,,,samuel,1,2022_Sep_13_1720,Lexical_exp,2021.2.3,None,
high,1,10,,,,,0,12,12,12,7,0,7,0,,,,,,left,19,generic,446.40270929201506,447.25082554202527,448.9018155420199,left,1,0.8126284159952775,,,,,,samuel,1,2022_Sep_13_1720,Lexical_exp,2021.2.3,None,
high,1,10,,,,,0,12,12,12,8,0,8,0,,,,,,left,39,incredible,449.00312879204284,449.7675357920234,451.50173529202584,left,1,0.7251166669884697,,,,,,samuel,1,2022_Sep_13_1720,Lexical_exp,2021.2.3,None,
high,1,10,,,,,0,12,12,12,9,0,9,0,,,,,,left,118,closely,451.6857243330451,452.48510741704376,454.1860910420073,left,1,0.7611455420264974,,,,,,samuel,1,2022_Sep_13_1720,Lexical_exp,2021.2.3,None,
high,1,10,,,,,0,12,12,12,,,,,0,0,0,0,,,,,,,,,,,100.0,high,None,4.0,None,samuel,1,2022_Sep_13_1720,Lexical_exp,2021.2.3,None,
high,1,10,,,,,0,12,12,12,,,,,1,0,1,0,,,,,,,,,,,,,4.0,None,None,samuel,1,2022_Sep_13_1720,Lexical_exp,2021.2.3,None,
high,1,10,,,,,0,12,12,12,,,,,2,0,2,0,,,,,,,,,,,,,None,None,4.0,samuel,1,2022_Sep_13_1720,Lexical_exp,2021.2.3,None,
high,1,10,,,,,0,13,13,13,0,0,0,0,,,,,,left,29,extensions,462.63673437503166,463.55083287501475,465.134477750049,left,1,0.8729897079756483,,,,,,samuel,1,2022_Sep_13_1720,Lexical_exp,2021.2.3,None,
high,1,10,,,,,0,13,13,13,1,0,1,0,,,,,,right,267,repractile,465.40337583300425,466.3174739580136,467.9024735830026,right,1,0.8689802919980139,,,,,,samuel,1,2022_Sep_13_1720,Lexical_exp,2021.2.3,None,
high,1,10,,,,,0,13,13,13,2,0,2,0,,,,,,right,285,ratronized,468.0868081250228,469.601959792024,470.5842436670209,right,1,1.484860208001919,,,,,,samuel,1,2022_Sep_13_1720,Lexical_exp,2021.2.3,None,
high,1,10,,,,,0,13,13,13,3,0,3,0,,,,,,left,71,containing,470.7678313750075,471.5181377500412,473.26874970801873,left,1,0.7021840839879587,,,,,,samuel,1,2022_Sep_13_1720,Lexical_exp,2021.2.3,None,
high,1,10,,,,,0,13,13,13,4,0,4,0,,,,,,left,21,anon,473.33633054204984,474.21749054203974,475.8519504580181,right,0,0.8394477090332657,,,,,,samuel,1,2022_Sep_13_1720,Lexical_exp,2021.2.3,None,
high,1,10,,,,,0,13,13,13,5,0,5,0,,,,,,left,60,mailed,475.9844032920082,476.8019785830402,478.5019396250136,left,1,0.7813150419970043,,,,,,samuel,1,2022_Sep_13_1720,Lexical_exp,2021.2.3,None,
high,1,10,,,,,0,13,13,13,6,0,6,0,,,,,,left,139,Berkeley,478.5688117920072,479.90195662504993,481.06752025004243,left,1,1.2898166670347564,,,,,,samuel,1,2022_Sep_13_1720,Lexical_exp,2021.2.3,None,
high,1,10,,,,,0,13,13,13,7,0,7,0,,,,,,right,271,oderrule,481.18481787503697,482.685055375041,483.68526475003455,right,1,1.4531891669612378,,,,,,samuel,1,2022_Sep_13_1720,Lexical_exp,2021.2.3,None,
high,1,10,,,,,0,13,13,13,8,0,8,0,,,,,,left,153,batch,483.95181920804316,484.6674526670249,486.4517675420502,left,1,0.6794911249889992,,,,,,samuel,1,2022_Sep_13_1720,Lexical_exp,2021.2.3,None,
high,1,10,,,,,0,13,13,13,9,0,9,0,,,,,,right,301,hiverside,486.58722712501185,487.7509332920308,489.1014505420462,right,1,1.1255512919742614,,,,,,samuel,1,2022_Sep_13_1720,Lexical_exp,2021.2.3,None,
high,1,10,,,,,0,13,13,13,,,,,0,0,0,0,,,,,,,,,,,90.0,high,None,None,4.0,samuel,1,2022_Sep_13_1720,Lexical_exp,2021.2.3,None,
high,1,10,,,,,0,13,13,13,,,,,1,0,1,0,,,,,,,,,,,,,None,4.0,None,samuel,1,2022_Sep_13_1720,Lexical_exp,2021.2.3,None,
high,1,10,,,,,0,13,13,13,,,,,2,0,2,0,,,,,,,,,,,,,2.0,None,None,samuel,1,2022_Sep_13_1720,Lexical_exp,2021.2.3,None,
high,1,10,,,,,0,14,14,14,0,0,0,0,,,,,,left,68,aside,496.4049336670432,497.3840352499974,498.9020132080186,left,1,0.9404633750091307,,,,,,samuel,1,2022_Sep_13_1720,Lexical_exp,2021.2.3,None,
high,1,10,,,,,0,14,14,14,1,0,1,0,,,,,,right,365,notivated,499.0345662080217,500.035018708033,501.5358046250185,right,1,0.9646109170280397,,,,,,samuel,1,2022_Sep_13_1720,Lexical_exp,2021.2.3,None,
high,1,10,,,,,0,14,14,14,2,0,2,0,,,,,,right,351,badgerung,501.8535032500513,503.1509066670551,504.3529809170286,right,1,1.2580207080463879,,,,,,samuel,1,2022_Sep_13_1720,Lexical_exp,2021.2.3,None,
high,1,10,,,,,0,14,14,14,3,0,3,0,,,,,,left,10,continuing,504.53528929204913,505.5507676670095,507.0355380830006,left,1,0.968632708012592,,,,,,samuel,1,2022_Sep_13_1720,Lexical_exp,2021.2.3,None,
high,1,10,,,,,0,14,14,14,4,0,4,0,,,,,,right,367,antificial,507.30294637504267,508.40217237500474,509.8033890000079,right,1,1.049616625008639,,,,,,samuel,1,2022_Sep_13_1720,Lexical_exp,2021.2.3,None,
high,1,10,,,,,0,14,14,14,5,0,5,0,,,,,,left,15,Australian,509.8361130830017,510.7684575000312,512.3348193750135,left,1,0.9063127500121482,,,,,,samuel,1,2022_Sep_13_1720,Lexical_exp,2021.2.3,None,
high,1,10,,,,,0,14,14,14,6,0,6,0,,,,,,left,76,entered,512.4196552500362,513.4510364170419,514.9190137920086,left,1,0.9892592090182006,,,,,,samuel,1,2022_Sep_13_1720,Lexical_exp,2021.2.3,None,
high,1,10,,,,,0,14,14,14,7,0,7,0,,,,,,left,165,Todd,514.9872380419984,516.2017584170098,517.4852737500332,left,1,1.1743124590138905,,,,,,samuel,1,2022_Sep_13_1720,Lexical_exp,2021.2.3,None,
high,1,10,,,,,0,14,14,14,8,0,8,0,,,,,,left,160,ordinary,517.7678519580513,518.4673723330488,520.2677568750223,left,1,0.6626092080259696,,,,,,samuel,1,2022_Sep_13_1720,Lexical_exp,2021.2.3,None,
high,1,10,,,,,0,14,14,14,9,0,9,0,,,,,,right,268,precit,520.335629875015,521.2841202920536,522.851945833012,right,1,0.9112060829647817,,,,,,samuel,1,2022_Sep_13_1720,Lexical_exp,2021.2.3,None,
high,1,10,,,,,0,14,14,14,,,,,0,0,0,0,,,,,,,,,,,100.0,high,None,None,2.0,samuel,1,2022_Sep_13_1720,Lexical_exp,2021.2.3,None,
high,1,10,,,,,0,14,14,14,,,,,1,0,1,0,,,,,,,,,,,,,2.0,None,None,samuel,1,2022_Sep_13_1720,Lexical_exp,2021.2.3,None,
high,1,10,,,,,0,14,14,14,,,,,2,0,2,0,,,,,,,,,,,,,None,4.0,None,samuel,1,2022_Sep_13_1720,Lexical_exp,2021.2.3,None,
