difficulty_level,num_session,num_rand,level_loop.thisRepN,level_loop.thisTrialN,level_loop.thisN,level_loop.thisIndex,trial_loop.thisRepN,trial_loop.thisTrialN,trial_loop.thisN,trial_loop.thisIndex,ratings.thisRepN,ratings.thisTrialN,ratings.thisN,ratings.thisIndex,start_time_stamp,True_ans,stim_start,press_key_time,stim_end,key_resp.keys,key_resp.corr,key_resp.rt,accuracy,diff,rating_effort.response,rating_difficulty.response,rating_attention.response,participant,replicate,date,expName,psychopyVersion,frameRate,
low,1,10,0,0,0,0,0,0,0,0,,,,,1663059002242,left,2.9043405409902334,4.337559166015126,5.419758250005543,right,0,1.3639298329944722,,,,,,samuel,1,2022_Sep_13_1649,Mentalrotate-exp,2021.2.3,60.82245659800537,
low,1,10,0,0,0,0,1,0,1,0,,,,,,left,6.036131999979261,7.268938458000775,8.551289625000209,left,1,1.1772436669562012,,,,,,samuel,1,2022_Sep_13_1649,Mentalrotate-exp,2021.2.3,60.82245659800537,
low,1,10,0,0,0,0,2,0,2,0,,,,,,right,8.986467499984428,11.475528415990993,11.500429707986768,right,1,2.447981208038982,,,,,,samuel,1,2022_Sep_13_1649,Mentalrotate-exp,2021.2.3,60.82245659800537,
low,1,10,0,0,0,0,3,0,3,0,,,,,,left,11.98545199999353,13.06652250001207,14.502889125025831,left,1,1.0437143750023097,,,,,,samuel,1,2022_Sep_13_1649,Mentalrotate-exp,2021.2.3,60.82245659800537,
low,1,10,0,0,0,0,4,0,4,0,,,,,,left,14.954836875025649,15.852180415997282,17.467105958028696,left,1,0.8507540000136942,,,,,,samuel,1,2022_Sep_13_1649,Mentalrotate-exp,2021.2.3,60.82245659800537,
low,1,10,0,0,0,0,5,0,5,0,,,,,,right,17.920282041013706,19.566360874974634,20.434545875003096,right,1,1.6110018329927698,,,,,,samuel,1,2022_Sep_13_1649,Mentalrotate-exp,2021.2.3,60.82245659800537,
low,1,10,0,0,0,0,6,0,6,0,,,,,,right,20.968517915986013,22.983944625011645,23.469002666010056,right,1,1.9699382079998031,,,,,,samuel,1,2022_Sep_13_1649,Mentalrotate-exp,2021.2.3,60.82245659800537,
low,1,10,0,0,0,0,7,0,7,0,,,,,,right,24.020610207982827,26.076552040991373,26.534583124972414,left,0,2.0174359590164386,,,,,,samuel,1,2022_Sep_13_1649,Mentalrotate-exp,2021.2.3,60.82245659800537,
low,1,10,0,0,0,0,8,0,8,0,,,,,,right,27.03610700002173,28.86661191598978,29.551933165988885,right,1,1.7835631250054576,,,,,,samuel,1,2022_Sep_13_1649,Mentalrotate-exp,2021.2.3,60.82245659800537,
low,1,10,0,0,0,0,9,0,9,0,,,,,,right,30.01908670802368,32.116835041029844,32.51984587498009,right,1,2.055282916990109,,,,,,samuel,1,2022_Sep_13_1649,Mentalrotate-exp,2021.2.3,60.82245659800537,
low,1,10,0,0,0,0,,,,,0,0,0,0,,,,,,,,,80.0,low,4.0,None,None,samuel,1,2022_Sep_13_1649,Mentalrotate-exp,2021.2.3,60.82245659800537,
low,1,10,0,0,0,0,,,,,1,0,1,0,,,,,,,,,,,None,3.0,None,samuel,1,2022_Sep_13_1649,Mentalrotate-exp,2021.2.3,60.82245659800537,
low,1,10,0,0,0,0,,,,,2,0,2,0,,,,,,,,,,,None,None,4.0,samuel,1,2022_Sep_13_1649,Mentalrotate-exp,2021.2.3,60.82245659800537,
low,1,10,0,1,1,1,0,0,0,0,,,,,,left,43.185030332999304,44.68491804099176,45.68516699998872,left,1,1.458308124972973,,,,,,samuel,1,2022_Sep_13_1649,Mentalrotate-exp,2021.2.3,60.82245659800537,
low,1,10,0,1,1,1,1,0,1,0,,,,,,right,46.20220983301988,48.53300041600596,48.700293665984645,right,1,2.2984055419801734,,,,,,samuel,1,2022_Sep_13_1649,Mentalrotate-exp,2021.2.3,60.82245659800537,
low,1,10,0,1,1,1,2,0,2,0,,,,,,right,49.23475366597995,51.559003875008784,51.7332223749836,right,1,2.2902105830144137,,,,,,samuel,1,2022_Sep_13_1649,Mentalrotate-exp,2021.2.3,60.82245659800537,
low,1,10,0,1,1,1,3,0,3,0,,,,,,left,52.166755500016734,53.384529041009955,54.68498812499456,left,1,1.177528208005242,,,,,,samuel,1,2022_Sep_13_1649,Mentalrotate-exp,2021.2.3,60.82245659800537,
low,1,10,0,1,1,1,4,0,4,0,,,,,,right,55.25147791602649,56.549913083028514,57.74999016599031,right,1,1.2649287920212373,,,,,,samuel,1,2022_Sep_13_1649,Mentalrotate-exp,2021.2.3,60.82245659800537,
low,1,10,0,1,1,1,5,0,5,0,,,,,,right,58.20077204098925,60.31654154101852,60.70254670799477,left,0,2.0745788329513744,,,,,,samuel,1,2022_Sep_13_1649,Mentalrotate-exp,2021.2.3,60.82245659800537,
low,1,10,0,1,1,1,6,0,6,0,,,,,,left,61.15025800000876,62.066125290992204,63.65025516599417,left,1,0.8739744169870391,,,,,,samuel,1,2022_Sep_13_1649,Mentalrotate-exp,2021.2.3,60.82245659800537,
low,1,10,0,1,1,1,7,0,7,0,,,,,,left,64.0667736660107,65.80033212498529,66.5853067500284,left,1,1.694601832947228,,,,,,samuel,1,2022_Sep_13_1649,Mentalrotate-exp,2021.2.3,60.82245659800537,
low,1,10,0,1,1,1,8,0,8,0,,,,,,left,67.0335146660218,68.50070049997885,69.53418050002074,left,1,1.4235453750006855,,,,,,samuel,1,2022_Sep_13_1649,Mentalrotate-exp,2021.2.3,60.82245659800537,
low,1,10,0,1,1,1,9,0,9,0,,,,,,left,69.93545554101001,70.85002745798556,72.43446687498363,left,1,0.8719277909840457,,,,,,samuel,1,2022_Sep_13_1649,Mentalrotate-exp,2021.2.3,60.82245659800537,
low,1,10,0,1,1,1,,,,,0,0,0,0,,,,,,,,,90.0,low,None,2.0,None,samuel,1,2022_Sep_13_1649,Mentalrotate-exp,2021.2.3,60.82245659800537,
low,1,10,0,1,1,1,,,,,1,0,1,0,,,,,,,,,,,None,None,4.0,samuel,1,2022_Sep_13_1649,Mentalrotate-exp,2021.2.3,60.82245659800537,
low,1,10,0,1,1,1,,,,,2,0,2,0,,,,,,,,,,,4.0,None,None,samuel,1,2022_Sep_13_1649,Mentalrotate-exp,2021.2.3,60.82245659800537,
low,1,10,0,2,2,2,0,0,0,0,,,,,,right,81.38493191602174,82.85007516597398,83.88497641601134,right,1,1.4183210000046529,,,,,,samuel,1,2022_Sep_13_1649,Mentalrotate-exp,2021.2.3,60.82245659800537,
low,1,10,0,2,2,2,1,0,1,0,,,,,,right,84.40106054098578,85.70022033300484,86.90127954102354,right,1,1.2501918749767356,,,,,,samuel,1,2022_Sep_13_1649,Mentalrotate-exp,2021.2.3,60.82245659800537,
low,1,10,0,2,2,2,2,0,2,0,,,,,,right,87.30155683297198,88.96616408298723,89.80143929098267,right,1,1.629976624972187,,,,,,samuel,1,2022_Sep_13_1649,Mentalrotate-exp,2021.2.3,60.82245659800537,
low,1,10,0,2,2,2,3,0,3,0,,,,,,left,90.28479674999835,91.34951441601152,92.78548854100518,left,1,1.03055124997627,,,,,,samuel,1,2022_Sep_13_1649,Mentalrotate-exp,2021.2.3,60.82245659800537,
low,1,10,0,2,2,2,4,0,4,0,,,,,,right,93.33532675000606,,95.84987266600365,None,0,,,,,,,samuel,1,2022_Sep_13_1649,Mentalrotate-exp,2021.2.3,60.82245659800537,
low,1,10,0,2,2,2,5,0,5,0,,,,,,left,96.28340087499237,97.70044612500351,98.78534041601233,left,1,1.366395749966614,,,,,,samuel,1,2022_Sep_13_1649,Mentalrotate-exp,2021.2.3,60.82245659800537,
low,1,10,0,2,2,2,6,0,6,0,,,,,,right,99.38691050000489,101.11730195797281,101.88481725001475,right,1,1.6904969159513712,,,,,,samuel,1,2022_Sep_13_1649,Mentalrotate-exp,2021.2.3,60.82245659800537,
low,1,10,0,2,2,2,7,0,7,0,,,,,,left,102.40212504100055,103.70078629098134,104.90038083301624,left,1,1.2668661249917932,,,,,,samuel,1,2022_Sep_13_1649,Mentalrotate-exp,2021.2.3,60.82245659800537,
low,1,10,0,2,2,2,8,0,8,0,,,,,,right,105.40256829099962,107.7502239579917,107.90054325002711,right,1,2.314951041014865,,,,,,samuel,1,2022_Sep_13_1649,Mentalrotate-exp,2021.2.3,60.82245659800537,
low,1,10,0,2,2,2,9,0,9,0,,,,,,right,108.4516817079857,110.53308833297342,110.9508717500139,right,1,2.053045749955345,,,,,,samuel,1,2022_Sep_13_1649,Mentalrotate-exp,2021.2.3,60.82245659800537,
low,1,10,0,2,2,2,,,,,0,0,0,0,,,,,,,,,90.0,low,4.0,None,None,samuel,1,2022_Sep_13_1649,Mentalrotate-exp,2021.2.3,60.82245659800537,
low,1,10,0,2,2,2,,,,,1,0,1,0,,,,,,,,,,,None,3.0,None,samuel,1,2022_Sep_13_1649,Mentalrotate-exp,2021.2.3,60.82245659800537,
low,1,10,0,2,2,2,,,,,2,0,2,0,,,,,,,,,,,None,None,4.0,samuel,1,2022_Sep_13_1649,Mentalrotate-exp,2021.2.3,60.82245659800537,
low,1,10,0,3,3,3,0,0,0,0,,,,,,left,118.78559729101835,119.9844976660097,121.2835112910252,left,1,1.1552148329792544,,,,,,samuel,1,2022_Sep_13_1649,Mentalrotate-exp,2021.2.3,60.82245659800537,
low,1,10,0,3,3,3,1,0,1,0,,,,,,right,121.70235416601645,123.81626395799685,124.20134362502722,right,1,2.078956708952319,,,,,,samuel,1,2022_Sep_13_1649,Mentalrotate-exp,2021.2.3,60.82245659800537,
low,1,10,0,3,3,3,2,0,2,0,,,,,,left,124.70201175002148,125.46621641598176,127.20157129102154,left,1,0.7269577500410378,,,,,,samuel,1,2022_Sep_13_1649,Mentalrotate-exp,2021.2.3,60.82245659800537,
low,1,10,0,3,3,3,3,0,3,0,,,,,,right,127.8022596249939,129.14968991599744,130.30220629100222,right,1,1.3070499160094187,,,,,,samuel,1,2022_Sep_13_1649,Mentalrotate-exp,2021.2.3,60.82245659800537,
low,1,10,0,3,3,3,4,0,4,0,,,,,,right,130.90288654097822,133.13299458299298,133.40094775002217,right,1,2.1912642079987563,,,,,,samuel,1,2022_Sep_13_1649,Mentalrotate-exp,2021.2.3,60.82245659800537,
low,1,10,0,3,3,3,5,0,5,0,,,,,,left,133.93394399998942,134.88451983302366,136.4341474159737,left,1,0.9066372499801219,,,,,,samuel,1,2022_Sep_13_1649,Mentalrotate-exp,2021.2.3,60.82245659800537,
low,1,10,0,3,3,3,6,0,6,0,,,,,,right,137.03453337500105,138.16623220802285,139.53405145800207,right,1,1.0995813339832239,,,,,,samuel,1,2022_Sep_13_1649,Mentalrotate-exp,2021.2.3,60.82245659800537,
low,1,10,0,3,3,3,7,0,7,0,,,,,,right,140.06658729101764,142.50040349998744,142.58501749997959,right,1,2.3987199169932865,,,,,,samuel,1,2022_Sep_13_1649,Mentalrotate-exp,2021.2.3,60.82245659800537,
low,1,10,0,3,3,3,8,0,8,0,,,,,,left,143.10109900002135,143.8841295830207,145.60146529099438,left,1,0.7432913749944419,,,,,,samuel,1,2022_Sep_13_1649,Mentalrotate-exp,2021.2.3,60.82245659800537,
low,1,10,0,3,3,3,9,0,9,0,,,,,,right,146.06748500000685,148.06619787501404,148.5667682500207,right,1,1.9588422090164386,,,,,,samuel,1,2022_Sep_13_1649,Mentalrotate-exp,2021.2.3,60.82245659800537,
low,1,10,0,3,3,3,,,,,0,0,0,0,,,,,,,,,100.0,low,None,3.0,None,samuel,1,2022_Sep_13_1649,Mentalrotate-exp,2021.2.3,60.82245659800537,
low,1,10,0,3,3,3,,,,,1,0,1,0,,,,,,,,,,,4.0,None,None,samuel,1,2022_Sep_13_1649,Mentalrotate-exp,2021.2.3,60.82245659800537,
low,1,10,0,3,3,3,,,,,2,0,2,0,,,,,,,,,,,None,None,4.0,samuel,1,2022_Sep_13_1649,Mentalrotate-exp,2021.2.3,60.82245659800537,
low,1,10,0,4,4,4,0,0,0,0,,,,,,left,156.18598987499718,157.43333520798478,158.6847858330002,left,1,1.2111302080447786,,,,,,samuel,1,2022_Sep_13_1649,Mentalrotate-exp,2021.2.3,60.82245659800537,
low,1,10,0,4,4,4,1,0,1,0,,,,,,left,159.25214679102646,160.23293795797508,161.75080008298391,left,1,0.9440409999806434,,,,,,samuel,1,2022_Sep_13_1649,Mentalrotate-exp,2021.2.3,60.82245659800537,
low,1,10,0,4,4,4,2,0,2,0,,,,,,right,162.18524745799368,163.84977387497202,164.68604862497887,left,0,1.627116042014677,,,,,,samuel,1,2022_Sep_13_1649,Mentalrotate-exp,2021.2.3,60.82245659800537,
low,1,10,0,4,4,4,3,0,3,0,,,,,,left,165.28465258301003,166.0004082910018,167.78484287502943,left,1,0.670936000009533,,,,,,samuel,1,2022_Sep_13_1649,Mentalrotate-exp,2021.2.3,60.82245659800537,
low,1,10,0,4,4,4,4,0,4,0,,,,,,left,168.35099183302373,169.44979037501616,170.85063137498219,left,1,1.0625827919575386,,,,,,samuel,1,2022_Sep_13_1649,Mentalrotate-exp,2021.2.3,60.82245659800537,
low,1,10,0,4,4,4,5,0,5,0,,,,,,left,171.36708683299366,172.10061224998208,173.8670136660221,left,1,0.704710541991517,,,,,,samuel,1,2022_Sep_13_1649,Mentalrotate-exp,2021.2.3,60.82245659800537,
low,1,10,0,4,4,4,6,0,6,0,,,,,,right,174.38523941597668,176.03300695802318,176.88560008298373,right,1,1.603175416996237,,,,,,samuel,1,2022_Sep_13_1649,Mentalrotate-exp,2021.2.3,60.82245659800537,
low,1,10,0,4,4,4,7,0,7,0,,,,,,right,177.48528449999867,178.90027645800728,179.98454683297314,right,1,1.3666911670006812,,,,,,samuel,1,2022_Sep_13_1649,Mentalrotate-exp,2021.2.3,60.82245659800537,
low,1,10,0,4,4,4,8,0,8,0,,,,,,right,180.55182445800165,182.41623220802285,183.06698920798954,left,0,1.8200021660304628,,,,,,samuel,1,2022_Sep_13_1649,Mentalrotate-exp,2021.2.3,60.82245659800537,
low,1,10,0,4,4,4,9,0,9,0,,,,,,right,183.58635895798216,186.06629920797423,186.08467125002062,right,1,2.435366082994733,,,,,,samuel,1,2022_Sep_13_1649,Mentalrotate-exp,2021.2.3,60.82245659800537,
low,1,10,0,4,4,4,,,,,0,0,0,0,,,,,,,,,80.0,low,4.0,None,None,samuel,1,2022_Sep_13_1649,Mentalrotate-exp,2021.2.3,60.82245659800537,
low,1,10,0,4,4,4,,,,,1,0,1,0,,,,,,,,,,,None,4.0,None,samuel,1,2022_Sep_13_1649,Mentalrotate-exp,2021.2.3,60.82245659800537,
low,1,10,0,4,4,4,,,,,2,0,2,0,,,,,,,,,,,None,None,4.0,samuel,1,2022_Sep_13_1649,Mentalrotate-exp,2021.2.3,60.82245659800537,
medium,1,10,0,5,5,5,0,0,0,0,,,,,,left,193.78541533299722,194.9171651250217,196.28547329100547,right,0,1.099348874995485,,,,,,samuel,1,2022_Sep_13_1649,Mentalrotate-exp,2021.2.3,60.82245659800537,
medium,1,10,0,5,5,5,1,0,1,0,,,,,,right,196.85030699998606,198.33322024997324,199.35066133301007,right,1,1.4455078330356628,,,,,,samuel,1,2022_Sep_13_1649,Mentalrotate-exp,2021.2.3,60.82245659800537,
medium,1,10,0,5,5,5,2,0,2,0,,,,,,right,199.83463220798876,202.05000308301533,202.3341597079998,left,0,2.1733369999565184,,,,,,samuel,1,2022_Sep_13_1649,Mentalrotate-exp,2021.2.3,60.82245659800537,
medium,1,10,0,5,5,5,3,0,3,0,,,,,,left,202.91877887502778,204.6661798330024,205.43424762500217,left,1,1.703579291002825,,,,,,samuel,1,2022_Sep_13_1649,Mentalrotate-exp,2021.2.3,60.82245659800537,
medium,1,10,0,5,5,5,4,0,4,0,,,,,,left,205.9675469159847,208.38480745797278,208.48529316601343,right,0,2.370701999985613,,,,,,samuel,1,2022_Sep_13_1649,Mentalrotate-exp,2021.2.3,60.82245659800537,
medium,1,10,0,5,5,5,5,0,5,0,,,,,,left,208.91828187502688,210.50071624998236,211.41817037499277,left,1,1.554636874992866,,,,,,samuel,1,2022_Sep_13_1649,Mentalrotate-exp,2021.2.3,60.82245659800537,
medium,1,10,0,5,5,5,6,0,6,0,,,,,,right,211.98606158298207,213.53319070802536,214.4861762499786,left,0,1.5073327499558218,,,,,,samuel,1,2022_Sep_13_1649,Mentalrotate-exp,2021.2.3,60.82245659800537,
medium,1,10,0,5,5,5,7,0,7,0,,,,,,right,214.91908212500857,216.7844222499989,217.4182275829953,left,0,1.8249695420381613,,,,,,samuel,1,2022_Sep_13_1649,Mentalrotate-exp,2021.2.3,60.82245659800537,
medium,1,10,0,5,5,5,8,0,8,0,,,,,,left,218.01693866599817,220.16612362500746,220.51797829102725,left,1,2.120284000004176,,,,,,samuel,1,2022_Sep_13_1649,Mentalrotate-exp,2021.2.3,60.82245659800537,
medium,1,10,0,5,5,5,9,0,9,0,,,,,,left,221.01732962502865,222.61609158298234,223.51716375001706,right,0,1.5689535419805907,,,,,,samuel,1,2022_Sep_13_1649,Mentalrotate-exp,2021.2.3,60.82245659800537,
medium,1,10,0,5,5,5,,,,,0,0,0,0,,,,,,,,,40.0,medium,None,None,4.0,samuel,1,2022_Sep_13_1649,Mentalrotate-exp,2021.2.3,60.82245659800537,
medium,1,10,0,5,5,5,,,,,1,0,1,0,,,,,,,,,,,None,3.0,None,samuel,1,2022_Sep_13_1649,Mentalrotate-exp,2021.2.3,60.82245659800537,
medium,1,10,0,5,5,5,,,,,2,0,2,0,,,,,,,,,,,4.0,None,None,samuel,1,2022_Sep_13_1649,Mentalrotate-exp,2021.2.3,60.82245659800537,
medium,1,10,0,6,6,6,0,0,0,0,,,,,,right,231.53545291599585,232.8499356660177,234.03524354100227,left,0,1.268639791989699,,,,,,samuel,1,2022_Sep_13_1649,Mentalrotate-exp,2021.2.3,60.82245659800537,
medium,1,10,0,6,6,6,1,0,1,0,,,,,,right,234.45171824999852,235.966141041019,236.949885250011,right,1,1.4736530000227503,,,,,,samuel,1,2022_Sep_13_1649,Mentalrotate-exp,2021.2.3,60.82245659800537,
medium,1,10,0,6,6,6,2,0,2,0,,,,,,right,237.46657208300894,239.28322137502255,239.9853839999996,left,0,1.7667084999848157,,,,,,samuel,1,2022_Sep_13_1649,Mentalrotate-exp,2021.2.3,60.82245659800537,
medium,1,10,0,6,6,6,3,0,3,0,,,,,,right,240.4349822080112,241.50056095799664,242.93397741601802,left,0,1.0295265840250067,,,,,,samuel,1,2022_Sep_13_1649,Mentalrotate-exp,2021.2.3,60.82245659800537,
medium,1,10,0,6,6,6,4,0,4,0,,,,,,left,243.5186722499784,245.73440287500853,246.0165142909973,left,1,2.1863250409951434,,,,,,samuel,1,2022_Sep_13_1649,Mentalrotate-exp,2021.2.3,60.82245659800537,
medium,1,10,0,6,6,6,5,0,5,0,,,,,,right,246.50255254097283,248.5173230409855,248.9997173330048,right,1,1.9679193749907427,,,,,,samuel,1,2022_Sep_13_1649,Mentalrotate-exp,2021.2.3,60.82245659800537,
medium,1,10,0,6,6,6,6,0,6,0,,,,,,left,249.60224970802665,251.5848216249724,252.1014152499847,left,1,1.93863250000868,,,,,,samuel,1,2022_Sep_13_1649,Mentalrotate-exp,2021.2.3,60.82245659800537,
medium,1,10,0,6,6,6,7,0,7,0,,,,,,right,252.65125070797512,255.0516138750245,255.1664072080166,left,0,2.357056292006746,,,,,,samuel,1,2022_Sep_13_1649,Mentalrotate-exp,2021.2.3,60.82245659800537,
medium,1,10,0,6,6,6,8,0,8,0,,,,,,left,255.6666964580072,257.55133816599846,258.1668811250129,left,1,1.8393464999971911,,,,,,samuel,1,2022_Sep_13_1649,Mentalrotate-exp,2021.2.3,60.82245659800537,
medium,1,10,0,6,6,6,9,0,9,0,,,,,,left,258.71957941597793,260.2845337499748,261.2171772500151,left,1,1.5260539999580942,,,,,,samuel,1,2022_Sep_13_1649,Mentalrotate-exp,2021.2.3,60.82245659800537,
medium,1,10,0,6,6,6,,,,,0,0,0,0,,,,,,,,,60.0,medium,4.0,None,None,samuel,1,2022_Sep_13_1649,Mentalrotate-exp,2021.2.3,60.82245659800537,
medium,1,10,0,6,6,6,,,,,1,0,1,0,,,,,,,,,,,None,None,4.0,samuel,1,2022_Sep_13_1649,Mentalrotate-exp,2021.2.3,60.82245659800537,
medium,1,10,0,6,6,6,,,,,2,0,2,0,,,,,,,,,,,None,3.0,None,samuel,1,2022_Sep_13_1649,Mentalrotate-exp,2021.2.3,60.82245659800537,
medium,1,10,0,7,7,7,0,0,0,0,,,,,,left,271.2369126250269,273.1508146660053,273.7343326249975,right,0,1.8739083329564892,,,,,,samuel,1,2022_Sep_13_1649,Mentalrotate-exp,2021.2.3,60.82245659800537,
medium,1,10,0,7,7,7,1,0,1,0,,,,,,left,274.2848960830015,276.532847666007,276.8010881660157,left,1,2.1996412080479786,,,,,,samuel,1,2022_Sep_13_1649,Mentalrotate-exp,2021.2.3,60.82245659800537,
medium,1,10,0,7,7,7,2,0,2,0,,,,,,right,277.38557975000003,279.21632275002776,279.88579579099314,right,1,1.78807158395648,,,,,,samuel,1,2022_Sep_13_1649,Mentalrotate-exp,2021.2.3,60.82245659800537,
medium,1,10,0,7,7,7,3,0,3,0,,,,,,right,280.45182354102144,282.11732358299196,282.95080804097233,right,1,1.6375931249931455,,,,,,samuel,1,2022_Sep_13_1649,Mentalrotate-exp,2021.2.3,60.82245659800537,
medium,1,10,0,7,7,7,4,0,4,0,,,,,,left,283.5346542079933,285.21623529097997,286.0341508749989,left,1,1.641779041965492,,,,,,samuel,1,2022_Sep_13_1649,Mentalrotate-exp,2021.2.3,60.82245659800537,
medium,1,10,0,7,7,7,5,0,5,0,,,,,,right,286.4703253749758,288.08344150002813,288.98515312501695,left,0,1.5679951250203885,,,,,,samuel,1,2022_Sep_13_1649,Mentalrotate-exp,2021.2.3,60.82245659800537,
medium,1,10,0,7,7,7,6,0,6,0,,,,,,left,289.56950945802964,291.0846709579928,292.084045415977,left,1,1.460915457981173,,,,,,samuel,1,2022_Sep_13_1649,Mentalrotate-exp,2021.2.3,60.82245659800537,
medium,1,10,0,7,7,7,7,0,7,0,,,,,,left,292.517811083002,294.55100441601826,295.01853233302245,left,1,1.9976533749722876,,,,,,samuel,1,2022_Sep_13_1649,Mentalrotate-exp,2021.2.3,60.82245659800537,
medium,1,10,0,7,7,7,8,0,8,0,,,,,,right,295.43513437500224,296.8164483329747,297.93445779097965,left,0,1.3373015419929288,,,,,,samuel,1,2022_Sep_13_1649,Mentalrotate-exp,2021.2.3,60.82245659800537,
medium,1,10,0,7,7,7,9,0,9,0,,,,,,right,298.3677686249721,300.0164408329874,300.8861194580095,right,1,1.6038547499920242,,,,,,samuel,1,2022_Sep_13_1649,Mentalrotate-exp,2021.2.3,60.82245659800537,
medium,1,10,0,7,7,7,,,,,0,0,0,0,,,,,,,,,70.0,medium,None,2.0,None,samuel,1,2022_Sep_13_1649,Mentalrotate-exp,2021.2.3,60.82245659800537,
medium,1,10,0,7,7,7,,,,,1,0,1,0,,,,,,,,,,,None,None,4.0,samuel,1,2022_Sep_13_1649,Mentalrotate-exp,2021.2.3,60.82245659800537,
medium,1,10,0,7,7,7,,,,,2,0,2,0,,,,,,,,,,,4.0,None,None,samuel,1,2022_Sep_13_1649,Mentalrotate-exp,2021.2.3,60.82245659800537,
medium,1,10,0,8,8,8,0,0,0,0,,,,,,right,308.702563208004,309.71714795799926,311.2011812910205,left,0,0.9670906249666587,,,,,,samuel,1,2022_Sep_13_1649,Mentalrotate-exp,2021.2.3,60.82245659800537,
medium,1,10,0,8,8,8,1,0,1,0,,,,,,left,311.63458875002107,313.93372687499505,314.1346319579752,right,0,2.262038416985888,,,,,,samuel,1,2022_Sep_13_1649,Mentalrotate-exp,2021.2.3,60.82245659800537,
medium,1,10,0,8,8,8,2,0,2,0,,,,,,left,314.60097908298485,316.76627933298005,317.10032245801995,right,0,2.1241675000055693,,,,,,samuel,1,2022_Sep_13_1649,Mentalrotate-exp,2021.2.3,60.82245659800537,
medium,1,10,0,8,8,8,3,0,3,0,,,,,,right,317.61803504102863,319.0994963750127,320.11851566599216,right,1,1.4466314170276746,,,,,,samuel,1,2022_Sep_13_1649,Mentalrotate-exp,2021.2.3,60.82245659800537,
medium,1,10,0,8,8,8,4,0,4,0,,,,,,right,320.65112162497826,322.91734541597543,323.1496314579854,left,0,2.223288416978903,,,,,,samuel,1,2022_Sep_13_1649,Mentalrotate-exp,2021.2.3,60.82245659800537,
medium,1,10,0,8,8,8,5,0,5,0,,,,,,right,323.6854659160017,325.9005093749729,326.1848144159885,right,1,2.1758172079571523,,,,,,samuel,1,2022_Sep_13_1649,Mentalrotate-exp,2021.2.3,60.82245659800537,
medium,1,10,0,8,8,8,6,0,6,0,,,,,,left,326.75237004098017,328.98337729100604,329.26629524998134,left,1,2.1918039160082117,,,,,,samuel,1,2022_Sep_13_1649,Mentalrotate-exp,2021.2.3,60.82245659800537,
medium,1,10,0,8,8,8,7,0,7,0,,,,,,right,329.7699068749789,331.61639749997994,332.26903179101646,right,1,1.8050184999592602,,,,,,samuel,1,2022_Sep_13_1649,Mentalrotate-exp,2021.2.3,60.82245659800537,
medium,1,10,0,8,8,8,8,0,8,0,,,,,,left,332.80062245798763,334.88334512501024,335.3010871250299,left,1,2.0522242080187425,,,,,,samuel,1,2022_Sep_13_1649,Mentalrotate-exp,2021.2.3,60.82245659800537,
medium,1,10,0,8,8,8,9,0,9,0,,,,,,right,335.8186271250015,336.78516104101436,338.3173808749998,left,0,0.9275005419622175,,,,,,samuel,1,2022_Sep_13_1649,Mentalrotate-exp,2021.2.3,60.82245659800537,
medium,1,10,0,8,8,8,,,,,0,0,0,0,,,,,,,,,50.0,medium,4.0,None,None,samuel,1,2022_Sep_13_1649,Mentalrotate-exp,2021.2.3,60.82245659800537,
medium,1,10,0,8,8,8,,,,,1,0,1,0,,,,,,,,,,,None,3.0,None,samuel,1,2022_Sep_13_1649,Mentalrotate-exp,2021.2.3,60.82245659800537,
medium,1,10,0,8,8,8,,,,,2,0,2,0,,,,,,,,,,,None,None,4.0,samuel,1,2022_Sep_13_1649,Mentalrotate-exp,2021.2.3,60.82245659800537,
medium,1,10,0,9,9,9,0,0,0,0,,,,,,left,346.51755912502995,347.7836844159756,349.0187662909739,left,1,1.2303873329656199,,,,,,samuel,1,2022_Sep_13_1649,Mentalrotate-exp,2021.2.3,60.82245659800537,
medium,1,10,0,9,9,9,1,0,1,0,,,,,,left,349.5844460829976,351.08509000000777,352.0836339999805,left,1,1.461054209037684,,,,,,samuel,1,2022_Sep_13_1649,Mentalrotate-exp,2021.2.3,60.82245659800537,
medium,1,10,0,9,9,9,2,0,2,0,,,,,,right,352.5193187909899,354.2501027910039,355.01828174997354,right,1,1.6936219159979373,,,,,,samuel,1,2022_Sep_13_1649,Mentalrotate-exp,2021.2.3,60.82245659800537,
medium,1,10,0,9,9,9,3,0,3,0,,,,,,left,355.5182057080092,357.7003324580146,358.01839300000574,left,1,2.1370153749594465,,,,,,samuel,1,2022_Sep_13_1649,Mentalrotate-exp,2021.2.3,60.82245659800537,
medium,1,10,0,9,9,9,4,0,4,0,,,,,,left,358.58391120802844,359.88471191597637,361.0850244999747,left,1,1.2626012089895085,,,,,,samuel,1,2022_Sep_13_1649,Mentalrotate-exp,2021.2.3,60.82245659800537,
medium,1,10,0,9,9,9,5,0,5,0,,,,,,left,361.5011214999831,362.43311433302006,364.00194916600594,left,1,0.8889194170478731,,,,,,samuel,1,2022_Sep_13_1649,Mentalrotate-exp,2021.2.3,60.82245659800537,
medium,1,10,0,9,9,9,6,0,6,0,,,,,,right,364.53505991597194,366.21608112502145,367.0341767499922,left,0,1.6505123330280185,,,,,,samuel,1,2022_Sep_13_1649,Mentalrotate-exp,2021.2.3,60.82245659800537,
medium,1,10,0,9,9,9,7,0,7,0,,,,,,right,367.63576341600856,369.26619295799173,370.13509133300977,left,0,1.5869028749875724,,,,,,samuel,1,2022_Sep_13_1649,Mentalrotate-exp,2021.2.3,60.82245659800537,
medium,1,10,0,9,9,9,8,0,8,0,,,,,,left,370.6177667080192,372.43396033300087,373.11739370797295,left,1,1.7707693330012262,,,,,,samuel,1,2022_Sep_13_1649,Mentalrotate-exp,2021.2.3,60.82245659800537,
medium,1,10,0,9,9,9,9,0,9,0,,,,,,right,373.66805791598745,374.45089124998776,376.17156533297384,left,0,0.7355719999759458,,,,,,samuel,1,2022_Sep_13_1649,Mentalrotate-exp,2021.2.3,60.82245659800537,
medium,1,10,0,9,9,9,,,,,0,0,0,0,,,,,,,,,70.0,medium,None,None,4.0,samuel,1,2022_Sep_13_1649,Mentalrotate-exp,2021.2.3,60.82245659800537,
medium,1,10,0,9,9,9,,,,,1,0,1,0,,,,,,,,,,,None,4.0,None,samuel,1,2022_Sep_13_1649,Mentalrotate-exp,2021.2.3,60.82245659800537,
medium,1,10,0,9,9,9,,,,,2,0,2,0,,,,,,,,,,,4.0,None,None,samuel,1,2022_Sep_13_1649,Mentalrotate-exp,2021.2.3,60.82245659800537,
high,1,10,0,10,10,10,0,0,0,0,,,,,,left,383.4352322500199,385.2162694580038,385.9504872080288,right,0,1.7228718749829568,,,,,,samuel,1,2022_Sep_13_1649,Mentalrotate-exp,2021.2.3,60.82245659800537,
high,1,10,0,10,10,10,1,0,1,0,,,,,,right,386.48486904101446,388.04981841600966,388.9857092499733,right,1,1.522916542016901,,,,,,samuel,1,2022_Sep_13_1649,Mentalrotate-exp,2021.2.3,60.82245659800537,
high,1,10,0,10,10,10,2,0,2,0,,,,,,left,389.50120141601656,391.9499373330036,392.00092379102716,right,0,2.408546332968399,,,,,,samuel,1,2022_Sep_13_1649,Mentalrotate-exp,2021.2.3,60.82245659800537,
high,1,10,0,10,10,10,3,0,3,0,,,,,,left,392.4681292910245,,394.9842697909917,None,0,,,,,,,samuel,1,2022_Sep_13_1649,Mentalrotate-exp,2021.2.3,60.82245659800537,
high,1,10,0,10,10,10,4,0,4,0,,,,,,right,395.46969816600904,397.05073783302214,397.966794500011,right,1,1.5452951670158654,,,,,,samuel,1,2022_Sep_13_1649,Mentalrotate-exp,2021.2.3,60.82245659800537,
high,1,10,0,10,10,10,5,0,5,0,,,,,,left,398.48661195801105,400.4343183329911,401.0010338330176,right,0,1.901283290993888,,,,,,samuel,1,2022_Sep_13_1649,Mentalrotate-exp,2021.2.3,60.82245659800537,
high,1,10,0,10,10,10,6,0,6,0,,,,,,left,401.4716442080098,403.48405979102245,403.9672547910013,left,1,1.9781427080160938,,,,,,samuel,1,2022_Sep_13_1649,Mentalrotate-exp,2021.2.3,60.82245659800537,
high,1,10,0,10,10,10,7,0,7,0,,,,,,left,404.43638233299134,406.20023754099384,406.9339776660199,left,1,1.731372999958694,,,,,,samuel,1,2022_Sep_13_1649,Mentalrotate-exp,2021.2.3,60.82245659800537,
high,1,10,0,10,10,10,8,0,8,0,,,,,,right,407.4691585000255,409.800543749996,409.9663327499875,left,0,2.2980212919646874,,,,,,samuel,1,2022_Sep_13_1649,Mentalrotate-exp,2021.2.3,60.82245659800537,
high,1,10,0,10,10,10,9,0,9,0,,,,,,right,410.4012525409926,412.33490762498695,412.9013913330273,right,1,1.892846125003416,,,,,,samuel,1,2022_Sep_13_1649,Mentalrotate-exp,2021.2.3,60.82245659800537,
high,1,10,0,10,10,10,,,,,0,0,0,0,,,,,,,,,50.0,high,None,4.0,None,samuel,1,2022_Sep_13_1649,Mentalrotate-exp,2021.2.3,60.82245659800537,
high,1,10,0,10,10,10,,,,,1,0,1,0,,,,,,,,,,,None,None,4.0,samuel,1,2022_Sep_13_1649,Mentalrotate-exp,2021.2.3,60.82245659800537,
high,1,10,0,10,10,10,,,,,2,0,2,0,,,,,,,,,,,4.0,None,None,samuel,1,2022_Sep_13_1649,Mentalrotate-exp,2021.2.3,60.82245659800537,
high,1,10,0,11,11,11,0,0,0,0,,,,,,right,419.76996958302334,421.1494921660051,422.2827300829813,right,1,1.3249390840064734,,,,,,samuel,1,2022_Sep_13_1649,Mentalrotate-exp,2021.2.3,60.82245659800537,
high,1,10,0,11,11,11,1,0,1,0,,,,,,left,422.71872691600583,424.967858833028,425.2174629580113,left,1,2.1997690420248546,,,,,,samuel,1,2022_Sep_13_1649,Mentalrotate-exp,2021.2.3,60.82245659800537,
high,1,10,0,11,11,11,2,0,2,0,,,,,,left,425.63531720801257,427.44991733302595,428.13454950001324,left,1,1.7794580839690752,,,,,,samuel,1,2022_Sep_13_1649,Mentalrotate-exp,2021.2.3,60.82245659800537,
high,1,10,0,11,11,11,3,0,3,0,,,,,,right,428.6168352080276,430.53483445802703,431.1187602910213,left,0,1.8854492080281489,,,,,,samuel,1,2022_Sep_13_1649,Mentalrotate-exp,2021.2.3,60.82245659800537,
high,1,10,0,11,11,11,4,0,4,0,,,,,,left,431.65188149997266,433.28328500001226,434.15163212502375,right,0,1.5902861659997143,,,,,,samuel,1,2022_Sep_13_1649,Mentalrotate-exp,2021.2.3,60.82245659800537,
high,1,10,0,11,11,11,5,0,5,0,,,,,,left,434.61844300001394,436.7662550830282,437.1173118749866,left,1,2.110143500030972,,,,,,samuel,1,2022_Sep_13_1649,Mentalrotate-exp,2021.2.3,60.82245659800537,
high,1,10,0,11,11,11,6,0,6,0,,,,,,right,437.5357538330136,439.86740024999017,440.0507909160224,left,0,2.294426333042793,,,,,,samuel,1,2022_Sep_13_1649,Mentalrotate-exp,2021.2.3,60.82245659800537,
high,1,10,0,11,11,11,7,0,7,0,,,,,,left,440.535244291008,442.5663034999743,443.03417087497655,right,0,1.9836604159791023,,,,,,samuel,1,2022_Sep_13_1649,Mentalrotate-exp,2021.2.3,60.82245659800537,
high,1,10,0,11,11,11,8,0,8,0,,,,,,right,443.4851139159873,444.8661115000141,445.9849506660248,right,1,1.3356501249945723,,,,,,samuel,1,2022_Sep_13_1649,Mentalrotate-exp,2021.2.3,60.82245659800537,
high,1,10,0,11,11,11,9,0,9,0,,,,,,left,446.53483058302663,,449.05075241602026,None,0,,,,,,,samuel,1,2022_Sep_13_1649,Mentalrotate-exp,2021.2.3,60.82245659800537,
high,1,10,0,11,11,11,,,,,0,0,0,0,,,,,,,,,50.0,high,None,None,4.0,samuel,1,2022_Sep_13_1649,Mentalrotate-exp,2021.2.3,60.82245659800537,
high,1,10,0,11,11,11,,,,,1,0,1,0,,,,,,,,,,,None,4.0,None,samuel,1,2022_Sep_13_1649,Mentalrotate-exp,2021.2.3,60.82245659800537,
high,1,10,0,11,11,11,,,,,2,0,2,0,,,,,,,,,,,4.0,None,None,samuel,1,2022_Sep_13_1649,Mentalrotate-exp,2021.2.3,60.82245659800537,
high,1,10,0,12,12,12,0,0,0,0,,,,,,right,455.6853787910077,457.4328844579868,458.1844881660072,right,1,1.7129518750007264,,,,,,samuel,1,2022_Sep_13_1649,Mentalrotate-exp,2021.2.3,60.82245659800537,
high,1,10,0,12,12,12,1,0,1,0,,,,,,right,458.7023182910052,461.0834187500295,461.2004915829748,right,1,2.3441679580137134,,,,,,samuel,1,2022_Sep_13_1649,Mentalrotate-exp,2021.2.3,60.82245659800537,
high,1,10,0,12,12,12,2,0,2,0,,,,,,right,461.6345794579829,463.81720587500604,464.15167425002437,right,1,2.146930041955784,,,,,,samuel,1,2022_Sep_13_1649,Mentalrotate-exp,2021.2.3,60.82245659800537,
high,1,10,0,12,12,12,3,0,3,0,,,,,,left,464.6348725829739,466.64985583297675,467.1351296660141,right,0,1.9819950409582816,,,,,,samuel,1,2022_Sep_13_1649,Mentalrotate-exp,2021.2.3,60.82245659800537,
high,1,10,0,12,12,12,4,0,4,0,,,,,,right,467.63589245802723,469.6661677910015,470.13445191597566,left,0,1.9901977080153301,,,,,,samuel,1,2022_Sep_13_1649,Mentalrotate-exp,2021.2.3,60.82245659800537,
high,1,10,0,12,12,12,5,0,5,0,,,,,,left,470.551552082994,472.7839511660277,473.0508222079952,left,1,2.1904686669586226,,,,,,samuel,1,2022_Sep_13_1649,Mentalrotate-exp,2021.2.3,60.82245659800537,
high,1,10,0,12,12,12,6,0,6,0,,,,,,left,473.55173641600413,475.6661217500223,476.0514760410297,left,1,2.0710452090133913,,,,,,samuel,1,2022_Sep_13_1649,Mentalrotate-exp,2021.2.3,60.82245659800537,
high,1,10,0,12,12,12,7,0,7,0,,,,,,right,476.61829791602213,479.0330503329751,479.116405415989,right,1,2.3824630409944803,,,,,,samuel,1,2022_Sep_13_1649,Mentalrotate-exp,2021.2.3,60.82245659800537,
high,1,10,0,12,12,12,8,0,8,0,,,,,,left,479.5335959580261,481.4508544160053,482.0344165409915,left,1,1.87891941703856,,,,,,samuel,1,2022_Sep_13_1649,Mentalrotate-exp,2021.2.3,60.82245659800537,
high,1,10,0,12,12,12,9,0,9,0,,,,,,right,482.58475937502226,485.00046925002243,485.083638333017,right,1,2.3833823750028387,,,,,,samuel,1,2022_Sep_13_1649,Mentalrotate-exp,2021.2.3,60.82245659800537,
high,1,10,0,12,12,12,,,,,0,0,0,0,,,,,,,,,80.0,high,None,4.0,None,samuel,1,2022_Sep_13_1649,Mentalrotate-exp,2021.2.3,60.82245659800537,
high,1,10,0,12,12,12,,,,,1,0,1,0,,,,,,,,,,,None,None,4.0,samuel,1,2022_Sep_13_1649,Mentalrotate-exp,2021.2.3,60.82245659800537,
high,1,10,0,12,12,12,,,,,2,0,2,0,,,,,,,,,,,4.0,None,None,samuel,1,2022_Sep_13_1649,Mentalrotate-exp,2021.2.3,60.82245659800537,
high,1,10,0,13,13,13,0,0,0,0,,,,,,right,492.71897333301604,493.95088033302454,495.2185973749729,right,1,1.1938327090465464,,,,,,samuel,1,2022_Sep_13_1649,Mentalrotate-exp,2021.2.3,60.82245659800537,
high,1,10,0,13,13,13,1,0,1,0,,,,,,left,495.6849892910104,497.51645320799435,498.18366350000724,right,0,1.7935386670287699,,,,,,samuel,1,2022_Sep_13_1649,Mentalrotate-exp,2021.2.3,60.82245659800537,
high,1,10,0,13,13,13,2,0,2,0,,,,,,right,498.71791966602905,500.3497643750161,501.21776287502144,right,1,1.5968796669621952,,,,,,samuel,1,2022_Sep_13_1649,Mentalrotate-exp,2021.2.3,60.82245659800537,
high,1,10,0,13,13,13,3,0,3,0,,,,,,right,501.685639082978,503.6164460409782,504.18472770799417,right,1,1.8889994589844719,,,,,,samuel,1,2022_Sep_13_1649,Mentalrotate-exp,2021.2.3,60.82245659800537,
high,1,10,0,13,13,13,4,0,4,0,,,,,,left,504.7501136250212,506.5164349999977,507.2515718329814,right,0,1.7233603750355542,,,,,,samuel,1,2022_Sep_13_1649,Mentalrotate-exp,2021.2.3,60.82245659800537,
high,1,10,0,13,13,13,5,0,5,0,,,,,,left,507.7182450830005,508.7004076659796,510.21849087497685,right,0,0.9488003750448115,,,,,,samuel,1,2022_Sep_13_1649,Mentalrotate-exp,2021.2.3,60.82245659800537,
high,1,10,0,13,13,13,6,0,6,0,,,,,,left,510.6859895000234,511.5164970830083,513.1842731250217,right,0,0.7929344999720342,,,,,,samuel,1,2022_Sep_13_1649,Mentalrotate-exp,2021.2.3,60.82245659800537,
high,1,10,0,13,13,13,7,0,7,0,,,,,,right,513.6672467499739,515.4005526250112,516.1672624999774,right,1,1.6975548750488088,,,,,,samuel,1,2022_Sep_13_1649,Mentalrotate-exp,2021.2.3,60.82245659800537,
high,1,10,0,13,13,13,8,0,8,0,,,,,,left,516.6019104580046,518.5163465000223,519.1018330000225,right,0,1.868754125025589,,,,,,samuel,1,2022_Sep_13_1649,Mentalrotate-exp,2021.2.3,60.82245659800537,
high,1,10,0,13,13,13,9,0,9,0,,,,,,right,519.6850819159881,521.1164357499802,522.2010785409948,left,0,1.3926137079834007,,,,,,samuel,1,2022_Sep_13_1649,Mentalrotate-exp,2021.2.3,60.82245659800537,
high,1,10,0,13,13,13,,,,,0,0,0,0,,,,,,,,,40.0,high,None,None,4.0,samuel,1,2022_Sep_13_1649,Mentalrotate-exp,2021.2.3,60.82245659800537,
high,1,10,0,13,13,13,,,,,1,0,1,0,,,,,,,,,,,None,5.0,None,samuel,1,2022_Sep_13_1649,Mentalrotate-exp,2021.2.3,60.82245659800537,
high,1,10,0,13,13,13,,,,,2,0,2,0,,,,,,,,,,,4.0,None,None,samuel,1,2022_Sep_13_1649,Mentalrotate-exp,2021.2.3,60.82245659800537,
high,1,10,0,14,14,14,0,0,0,0,,,,,,right,530.2189323750208,531.5337687080028,532.7174371660221,right,1,1.279023542010691,,,,,,samuel,1,2022_Sep_13_1649,Mentalrotate-exp,2021.2.3,60.82245659800537,
high,1,10,0,14,14,14,1,0,1,0,,,,,,left,533.2839496660163,534.6846866660053,535.784361500002,right,0,1.3664271250017919,,,,,,samuel,1,2022_Sep_13_1649,Mentalrotate-exp,2021.2.3,60.82245659800537,
high,1,10,0,14,14,14,2,0,2,0,,,,,,right,536.3867817079881,,538.8995657910127,None,0,,,,,,,samuel,1,2022_Sep_13_1649,Mentalrotate-exp,2021.2.3,60.82245659800537,
high,1,10,0,14,14,14,3,0,3,0,,,,,,left,539.4528005410102,541.0495903749834,541.950957041001,right,0,1.5624555419781245,,,,,,samuel,1,2022_Sep_13_1649,Mentalrotate-exp,2021.2.3,60.82245659800537,
high,1,10,0,14,14,14,4,0,4,0,,,,,,left,542.5019028329989,544.0995840000105,545.0173336250009,left,1,1.5500677090021782,,,,,,samuel,1,2022_Sep_13_1649,Mentalrotate-exp,2021.2.3,60.82245659800537,
high,1,10,0,14,14,14,5,0,5,0,,,,,,right,545.467851250025,547.5164952080231,547.9849240829935,right,1,2.0095187499537133,,,,,,samuel,1,2022_Sep_13_1649,Mentalrotate-exp,2021.2.3,60.82245659800537,
high,1,10,0,14,14,14,6,0,6,0,,,,,,right,548.5335410410189,550.4834308329737,551.0342876660288,left,0,1.9031098329578526,,,,,,samuel,1,2022_Sep_13_1649,Mentalrotate-exp,2021.2.3,60.82245659800537,
high,1,10,0,14,14,14,7,0,7,0,,,,,,right,551.5518748330069,553.2497977080056,554.0507167080068,left,0,1.6593097919831052,,,,,,samuel,1,2022_Sep_13_1649,Mentalrotate-exp,2021.2.3,60.82245659800537,
high,1,10,0,14,14,14,8,0,8,0,,,,,,right,554.4842945410055,556.5340084999916,556.9844206250273,right,1,2.0021050840150565,,,,,,samuel,1,2022_Sep_13_1649,Mentalrotate-exp,2021.2.3,60.82245659800537,
high,1,10,0,14,14,14,9,0,9,0,,,,,,left,557.4845248329802,559.7994682909921,559.9845216660178,right,0,2.281461624952499,,,,,,samuel,1,2022_Sep_13_1649,Mentalrotate-exp,2021.2.3,60.82245659800537,
high,1,10,0,14,14,14,,,,,0,0,0,0,,,,,,,,,40.0,high,None,5.0,None,samuel,1,2022_Sep_13_1649,Mentalrotate-exp,2021.2.3,60.82245659800537,
high,1,10,0,14,14,14,,,,,1,0,1,0,,,,,,,,,,,None,None,4.0,samuel,1,2022_Sep_13_1649,Mentalrotate-exp,2021.2.3,60.82245659800537,
high,1,10,0,14,14,14,,,,,2,0,2,0,,,,,,,,,,,4.0,None,None,samuel,1,2022_Sep_13_1649,Mentalrotate-exp,2021.2.3,60.82245659800537,
