difficulty_level,num_session,level_loops.thisRepN,level_loops.thisTrialN,level_loops.thisN,level_loops.thisIndex,trial_loop.thisRepN,trial_loop.thisTrialN,trial_loop.thisN,trial_loop.thisIndex,ratings.thisRepN,ratings.thisTrialN,ratings.thisN,ratings.thisIndex,start_time_stamp,reqPress_key,stim_start,press_key_time,stim_end,key_resp.keys,key_resp.rt,key_resp.started,key_resp.stopped,key_resp.corr,accuracy,diff,rating_effort.response,rating_difficulty.response,rating_attention.response,participant,replicate,hand,date,expName,psychopyVersion,frameRate,
low,1,0,0,0,0,0,0,0,0,,,,,1663128225911,['a'],4.149809374999677,4.730692375000217,6.666190457999619,['a'],[0.5321527500000229],18.48526129200036,19.262423874999513,1,,,,,,1,001,left,2022_Sep_14_1203,fingertaping-exp,2021.2.3,61.3729905138725,
low,1,0,0,0,0,1,0,1,0,,,,,,['a'],7.100407333000476,7.631779749999623,9.620309291000012,['a'],[0.4610688739994657],21.45237995900061,22.162309041999833,1,,,,,,1,001,left,2022_Sep_14_1203,fingertaping-exp,2021.2.3,61.3729905138725,
low,1,0,0,0,0,2,0,2,0,,,,,,['s'],10.186029415999656,10.832115790999524,12.69806779099963,['s'],[0.5908102080011304],24.538688958999046,25.379505375000008,1,,,,,,1,001,left,2022_Sep_14_1203,fingertaping-exp,2021.2.3,61.3729905138725,
low,1,0,0,0,0,3,0,3,0,,,,,,['d'],13.132833915999072,13.667615041000317,15.648953665999215,['d'],[0.4928357489989139],27.468640249999225,28.198548041998947,1,,,,,,1,001,left,2022_Sep_14_1203,fingertaping-exp,2021.2.3,61.3729905138725,
low,1,0,0,0,0,4,0,4,0,,,,,,['s'],16.16975629099943,16.731764250000197,18.68408816599913,['s'],[0.5070181660012167],30.51046574999964,31.262335458999587,1,,,,,,1,001,left,2022_Sep_14_1203,fingertaping-exp,2021.2.3,61.3729905138725,
low,1,0,0,0,0,5,0,5,0,,,,,,['s'],19.11895429099968,19.649097665998852,21.632219457998872,['s'],[0.4748253329998988],33.45470070900046,34.19732466700043,1,,,,,,1,001,left,2022_Sep_14_1203,fingertaping-exp,2021.2.3,61.3729905138725,
low,1,0,0,0,0,6,0,6,0,,,,,,['a'],22.170239249999213,22.74913799999922,24.68449316599981,['a'],[0.5224742499995045],36.51107095899897,37.29607883400058,1,,,,,,1,001,left,2022_Sep_14_1203,fingertaping-exp,2021.2.3,61.3729905138725,
low,1,0,0,0,0,7,0,7,0,,,,,,['d'],25.16977124999903,25.63175533299909,27.685335207999742,['d'],[0.41812862400001904],39.5114257919995,40.16269270900011,1,,,,,,1,001,left,2022_Sep_14_1203,fingertaping-exp,2021.2.3,61.3729905138725,
low,1,0,0,0,0,8,0,8,0,,,,,,['a'],28.15342183299981,28.615310625000347,30.667203832999803,['a'],[0.4128729999993084],42.49273029200049,43.14579587499975,1,,,,,,1,001,left,2022_Sep_14_1203,fingertaping-exp,2021.2.3,61.3729905138725,
low,1,0,0,0,0,9,0,9,0,,,,,,['a'],31.151744875000077,31.66739304099974,33.66753333300039,['a'],[0.46522812399962277],45.49636516700048,46.22918091700012,1,,,,,,1,001,left,2022_Sep_14_1203,fingertaping-exp,2021.2.3,61.3729905138725,
low,1,0,0,0,0,,,,,0,0,0,0,,,,,,,,,,,100.0,low,3.0,None,None,1,001,left,2022_Sep_14_1203,fingertaping-exp,2021.2.3,61.3729905138725,
low,1,0,0,0,0,,,,,1,0,1,0,,,,,,,,,,,,,None,None,4.0,1,001,left,2022_Sep_14_1203,fingertaping-exp,2021.2.3,61.3729905138725,
low,1,0,0,0,0,,,,,2,0,2,0,,,,,,,,,,,,,None,1.0,None,1,001,left,2022_Sep_14_1203,fingertaping-exp,2021.2.3,61.3729905138725,
low,1,0,1,1,1,0,0,0,0,,,,,,['d'],48.050863250000475,48.99972399999933,50.56695195800057,['d'],[0.9090861250006128],62.38062233399978,63.54526979199909,1,,,,,,1,001,left,2022_Sep_14_1203,fingertaping-exp,2021.2.3,61.3729905138725,
low,1,0,1,1,1,1,0,1,0,,,,,,['f'],51.08208479099994,51.68131054100013,53.59887483300008,['f'],[0.5649712910017115],65.41274616699957,66.22938979199898,1,,,,,,1,001,left,2022_Sep_14_1203,fingertaping-exp,2021.2.3,61.3729905138725,
low,1,0,1,1,1,2,0,2,0,,,,,,['a'],54.11576454100032,54.548003750000134,56.63246629099922,['a'],[0.39581404099953943],68.4459435839999,69.07789916699949,1,,,,,,1,001,left,2022_Sep_14_1203,fingertaping-exp,2021.2.3,61.3729905138725,
low,1,0,1,1,1,3,0,3,0,,,,,,['s'],57.132406916000036,57.547753249999005,59.631690582999,['s'],[0.372095499000352],71.461651874999,72.07803025000067,1,,,,,,1,001,left,2022_Sep_14_1203,fingertaping-exp,2021.2.3,61.3729905138725,
low,1,0,1,1,1,4,0,4,0,,,,,,['d'],60.099137707999034,60.51469879099932,62.599265124999874,['d'],[0.3802892490002705],74.42950187499991,75.04522100000031,1,,,,,,1,001,left,2022_Sep_14_1203,fingertaping-exp,2021.2.3,61.3729905138725,
low,1,0,1,1,1,5,0,5,0,,,,,,['a'],63.050264833000256,63.48129241599963,65.54939129100057,['a'],[0.39180258300075366],77.37801658399985,78.02816849999908,1,,,,,,1,001,left,2022_Sep_14_1203,fingertaping-exp,2021.2.3,61.3729905138725,
low,1,0,1,1,1,6,0,6,0,,,,,,['s'],66.0154115410005,66.49813737499971,68.51568183299969,['s'],[0.4486676239994267],80.34514454199962,81.029637833999,1,,,,,,1,001,left,2022_Sep_14_1203,fingertaping-exp,2021.2.3,61.3729905138725,
low,1,0,1,1,1,7,0,7,0,,,,,,['s'],68.9830550000006,69.71486958300011,71.49829770799988,['s'],[0.6965844159985863],83.31327083399992,84.24554241700025,1,,,,,,1,001,left,2022_Sep_14_1203,fingertaping-exp,2021.2.3,61.3729905138725,
low,1,0,1,1,1,8,0,8,0,,,,,,['s'],71.91537145799884,72.4646010409997,74.41633066599934,['s'],[0.5006418749999284],86.26121162500021,86.99501450000025,1,,,,,,1,001,left,2022_Sep_14_1203,fingertaping-exp,2021.2.3,61.3729905138725,
low,1,0,1,1,1,9,0,9,0,,,,,,['f'],74.93239820800045,75.59886287500012,77.43312762499954,['f'],[0.6022443740002927],89.27964624999913,90.1293672920001,1,,,,,,1,001,left,2022_Sep_14_1203,fingertaping-exp,2021.2.3,61.3729905138725,
low,1,0,1,1,1,,,,,0,0,0,0,,,,,,,,,,,100.0,low,None,None,4.0,1,001,left,2022_Sep_14_1203,fingertaping-exp,2021.2.3,61.3729905138725,
low,1,0,1,1,1,,,,,1,0,1,0,,,,,,,,,,,,,4.0,None,None,1,001,left,2022_Sep_14_1203,fingertaping-exp,2021.2.3,61.3729905138725,
low,1,0,1,1,1,,,,,2,0,2,0,,,,,,,,,,,,,None,1.0,None,1,001,left,2022_Sep_14_1203,fingertaping-exp,2021.2.3,61.3729905138725,
low,1,0,2,2,2,0,0,0,0,,,,,,['a'],86.70035595799891,87.24814783299917,89.21586345799915,['a'],[0.513188540999181],101.03276841700063,101.79521274999934,1,,,,,,1,001,left,2022_Sep_14_1203,fingertaping-exp,2021.2.3,61.3729905138725,
low,1,0,2,2,2,1,0,1,0,,,,,,['s'],89.69925750000039,90.18246229099896,92.19883599999957,['s'],[0.44501341599971056],104.02896387500004,104.72828758399919,1,,,,,,1,001,left,2022_Sep_14_1203,fingertaping-exp,2021.2.3,61.3729905138725,
low,1,0,2,2,2,2,0,2,0,,,,,,['a'],92.61680770800012,93.23133020800014,95.11618320799971,['a'],[0.5686513330001617],106.94537754200064,107.76382241700048,1,,,,,,1,001,left,2022_Sep_14_1203,fingertaping-exp,2021.2.3,61.3729905138725,
low,1,0,2,2,2,3,0,3,0,,,,,,['d'],95.58235054099896,96.14828387499983,98.09890437499962,['d'],[0.5285430820003967],109.91351854200002,110.67868370900032,1,,,,,,1,001,left,2022_Sep_14_1203,fingertaping-exp,2021.2.3,61.3729905138725,
low,1,0,2,2,2,4,0,4,0,,,,,,['d'],98.58237000000008,99.1817312080002,101.098503833,['d'],[0.552582041000278],112.91345008399912,113.71331199999986,1,,,,,,1,001,left,2022_Sep_14_1203,fingertaping-exp,2021.2.3,61.3729905138725,
low,1,0,2,2,2,5,0,5,0,,,,,,['d'],101.53331841599902,102.11525287499899,104.03378433299986,['d'],[0.5459651660003146],115.86411387499902,116.66341370900045,1,,,,,,1,001,left,2022_Sep_14_1203,fingertaping-exp,2021.2.3,61.3729905138725,
low,1,0,2,2,2,6,0,6,0,,,,,,['a'],104.44918404099917,104.91560345799917,106.94842133299971,['a'],[0.43160995800099045],118.77847512500011,119.44510858399917,1,,,,,,1,001,left,2022_Sep_14_1203,fingertaping-exp,2021.2.3,61.3729905138725,
low,1,0,2,2,2,7,0,7,0,,,,,,['s'],107.41632633299923,107.89914091599894,109.93169416599994,['s'],[0.424996874999124],121.76112487499995,122.42920658399999,1,,,,,,1,001,left,2022_Sep_14_1203,fingertaping-exp,2021.2.3,61.3729905138725,
low,1,0,2,2,2,8,0,8,0,,,,,,['a'],110.46569766599896,110.88193275000049,112.96554366599958,['a'],[0.3827120409987401],124.79538875000071,125.41411225000047,1,,,,,,1,001,left,2022_Sep_14_1203,fingertaping-exp,2021.2.3,61.3729905138725,
low,1,0,2,2,2,9,0,9,0,,,,,,['d'],113.40328666599999,113.96450812500007,115.91575487499904,['d'],[0.4939974989993061],127.7401506669994,128.4963713750003,1,,,,,,1,001,left,2022_Sep_14_1203,fingertaping-exp,2021.2.3,61.3729905138725,
low,1,0,2,2,2,,,,,0,0,0,0,,,,,,,,,,,100.0,low,4.0,None,None,1,001,left,2022_Sep_14_1203,fingertaping-exp,2021.2.3,61.3729905138725,
low,1,0,2,2,2,,,,,1,0,1,0,,,,,,,,,,,,,None,1.0,None,1,001,left,2022_Sep_14_1203,fingertaping-exp,2021.2.3,61.3729905138725,
low,1,0,2,2,2,,,,,2,0,2,0,,,,,,,,,,,,,None,None,4.0,1,001,left,2022_Sep_14_1203,fingertaping-exp,2021.2.3,61.3729905138725,
low,1,0,3,3,3,0,0,0,0,,,,,,['a'],127.83507887499945,128.41563641599896,130.3327411249993,['a'],[0.5357039160007844],142.16257654199944,142.94504829200014,1,,,,,,1,001,left,2022_Sep_14_1203,fingertaping-exp,2021.2.3,61.3729905138725,
low,1,0,3,3,3,1,0,1,0,,,,,,['f'],130.88374316599948,131.48273287499978,133.38366641599896,['f'],[0.5563732490008988],145.21391170899915,146.02861437499996,1,,,,,,1,001,left,2022_Sep_14_1203,fingertaping-exp,2021.2.3,61.3729905138725,
low,1,0,3,3,3,2,0,2,0,,,,,,['s'],133.83280683299927,134.26584629100034,136.33303399999932,['s'],[0.39213262500015844],148.1621565000005,148.79669504199956,1,,,,,,1,001,left,2022_Sep_14_1203,fingertaping-exp,2021.2.3,61.3729905138725,
low,1,0,3,3,3,3,0,3,0,,,,,,['a'],136.799803291,137.34798720800063,139.31533229100023,['a'],[0.4959193739996408],151.13047808400006,151.87909695899907,1,,,,,,1,001,left,2022_Sep_14_1203,fingertaping-exp,2021.2.3,61.3729905138725,
low,1,0,3,3,3,4,0,4,0,,,,,,['d'],139.74928616599937,140.29970520799907,142.24963299999945,['d'],[0.5069654990002164],154.07938033400023,154.828461916999,1,,,,,,1,001,left,2022_Sep_14_1203,fingertaping-exp,2021.2.3,61.3729905138725,
low,1,0,3,3,3,5,0,5,0,,,,,,['s'],142.75004212500062,143.24899558300058,145.24915175000024,['s'],[0.4670490410007915],157.07929958400018,157.77880454200022,1,,,,,,1,001,left,2022_Sep_14_1203,fingertaping-exp,2021.2.3,61.3729905138725,
low,1,0,3,3,3,6,0,6,0,,,,,,['d'],145.7344763330002,146.24813887500022,148.2329373749999,['f'],[0.45897758300088753],160.06338679200053,160.7791846250002,0,,,,,,1,001,left,2022_Sep_14_1203,fingertaping-exp,2021.2.3,61.3729905138725,
low,1,0,3,3,3,7,0,7,0,,,,,,['a'],148.66663937500016,149.23189329100023,151.1661272500005,['a'],[0.5186236250010552],162.99574558399945,163.76203799999894,1,,,,,,1,001,left,2022_Sep_14_1203,fingertaping-exp,2021.2.3,61.3729905138725,
low,1,0,3,3,3,8,0,8,0,,,,,,['a'],151.61732633300016,152.23186745800012,154.1171140410006,['a'],[0.5754247910008417],165.94699183400007,166.76191641699916,1,,,,,,1,001,left,2022_Sep_14_1203,fingertaping-exp,2021.2.3,61.3729905138725,
low,1,0,3,3,3,9,0,9,0,,,,,,['d'],154.5326305409999,155.04867004100015,157.03215983299924,['d'],[0.476368707999427],168.86205591699945,169.59655929200017,1,,,,,,1,001,left,2022_Sep_14_1203,fingertaping-exp,2021.2.3,61.3729905138725,
low,1,0,3,3,3,,,,,0,0,0,0,,,,,,,,,,,90.0,low,None,None,2.0,1,001,left,2022_Sep_14_1203,fingertaping-exp,2021.2.3,61.3729905138725,
low,1,0,3,3,3,,,,,1,0,1,0,,,,,,,,,,,,,None,2.0,None,1,001,left,2022_Sep_14_1203,fingertaping-exp,2021.2.3,61.3729905138725,
low,1,0,3,3,3,,,,,2,0,2,0,,,,,,,,,,,,,3.0,None,None,1,001,left,2022_Sep_14_1203,fingertaping-exp,2021.2.3,61.3729905138725,
low,1,0,4,4,4,0,0,0,0,,,,,,['d'],170.5521899159994,171.23225120799907,173.0660793749994,['d'],[0.6323392070007685],184.88219687499986,185.7626987090007,1,,,,,,1,001,left,2022_Sep_14_1203,fingertaping-exp,2021.2.3,61.3729905138725,
low,1,0,4,4,4,1,0,1,0,,,,,,['f'],173.4836062079994,174.01558325000042,176.00010616600048,['f'],[0.48461541599863267],187.81392608399983,188.56358533399907,1,,,,,,1,001,left,2022_Sep_14_1203,fingertaping-exp,2021.2.3,61.3729905138725,
low,1,0,4,4,4,2,0,2,0,,,,,,['d'],176.48607491599978,177.0491418749989,178.99932337499922,['d'],[0.5240442079993954],190.8145534590003,191.59627691700007,1,,,,,,1,001,left,2022_Sep_14_1203,fingertaping-exp,2021.2.3,61.3729905138725,
low,1,0,4,4,4,3,0,3,0,,,,,,['s'],179.43300591600018,179.9321122500005,181.93323908300044,['s'],[0.4553581239997584],193.76322824999988,194.4631707919998,1,,,,,,1,001,left,2022_Sep_14_1203,fingertaping-exp,2021.2.3,61.3729905138725,
low,1,0,4,4,4,4,0,4,0,,,,,,['f'],182.35039737499937,183.04879062500004,184.86584791600035,['f'],[0.6566634569990129],196.68193441699987,197.57910900000024,1,,,,,,1,001,left,2022_Sep_14_1203,fingertaping-exp,2021.2.3,61.3729905138725,
low,1,0,4,4,4,5,0,5,0,,,,,,['s'],185.3345136249991,185.7824756659993,187.83249500000056,['s'],[0.4118659159994422],199.6627572920006,200.31384779200016,1,,,,,,1,001,left,2022_Sep_14_1203,fingertaping-exp,2021.2.3,61.3729905138725,
low,1,0,4,4,4,6,0,6,0,,,,,,['s'],188.30003416599902,188.79988370799947,190.81652212500012,['s'],[0.4517750410013832],202.63087024999913,203.34718095899916,1,,,,,,1,001,left,2022_Sep_14_1203,fingertaping-exp,2021.2.3,61.3729905138725,
low,1,0,4,4,4,7,0,7,0,,,,,,['s'],191.2833153749998,191.76598212499994,193.78267041599975,['s'],[0.44518841599892767],205.61349662499924,206.29866154199954,1,,,,,,1,001,left,2022_Sep_14_1203,fingertaping-exp,2021.2.3,61.3729905138725,
low,1,0,4,4,4,8,0,8,0,,,,,,['f'],194.31680541599962,194.91589283299982,196.81757733300037,['f'],[0.5486030819993175],208.66206604199942,209.4458235839993,1,,,,,,1,001,left,2022_Sep_14_1203,fingertaping-exp,2021.2.3,61.3729905138725,
low,1,0,4,4,4,9,0,9,0,,,,,,['a'],197.3169007079996,197.79919179100034,199.81706337499963,['a'],[0.4448578320007073],211.64586670899916,212.34565637500054,1,,,,,,1,001,left,2022_Sep_14_1203,fingertaping-exp,2021.2.3,61.3729905138725,
low,1,0,4,4,4,,,,,0,0,0,0,,,,,,,,,,,100.0,low,None,None,4.0,1,001,left,2022_Sep_14_1203,fingertaping-exp,2021.2.3,61.3729905138725,
low,1,0,4,4,4,,,,,1,0,1,0,,,,,,,,,,,,,3.0,None,None,1,001,left,2022_Sep_14_1203,fingertaping-exp,2021.2.3,61.3729905138725,
low,1,0,4,4,4,,,,,2,0,2,0,,,,,,,,,,,,,None,1.0,None,1,001,left,2022_Sep_14_1203,fingertaping-exp,2021.2.3,61.3729905138725,
medium,1,0,5,5,5,0,0,0,0,,,,,,"['s', 'f', 'a']",214.5177622079991,215.68272791599884,217.0160569999989,"['a', 's', 'f']","[1.132922499000415, 1.14894883299894, 1.14894883299894]",228.84591937500045,230.22989600000074,1,,,,,,1,001,left,2022_Sep_14_1203,fingertaping-exp,2021.2.3,61.3729905138725,
medium,1,0,5,5,5,1,0,1,0,,,,,,"['d', 's', 'f']",217.4664087910005,218.48264458300036,219.9840124580005,"['d', 's', 'f']","[0.9816140830007498, 0.997621500000605, 1.0136191250003321]",231.79723525000009,233.01321737499893,1,,,,,,1,001,left,2022_Sep_14_1203,fingertaping-exp,2021.2.3,61.3729905138725,
medium,1,0,5,5,5,2,0,2,0,,,,,,"['f', 's']",220.44951112499984,221.315518333,222.9495762080005,"['s', 'f']","[0.8314809990006324, 0.8474872910010163]",234.77936691700052,235.84610691700072,1,,,,,,1,001,left,2022_Sep_14_1203,fingertaping-exp,2021.2.3,61.3729905138725,
medium,1,0,5,5,5,3,0,3,0,,,,,,"['s', 'a', 'f']",223.3997459580005,224.5488907910003,225.89995224999984,"['a', 'f', 's']","[1.1128135409999231, 1.128821373999017, 1.1608209989990428]",237.73007916700044,239.0793513339995,1,,,,,,1,001,left,2022_Sep_14_1203,fingertaping-exp,2021.2.3,61.3729905138725,
medium,1,0,5,5,5,4,0,4,0,,,,,,"['s', 'd']",226.3332624579998,227.2487301250003,228.83350241600056,"['s', 'd']","[0.8669361249994836, 0.8669361249994836]",240.66395741700035,241.78031262500008,1,,,,,,1,001,left,2022_Sep_14_1203,fingertaping-exp,2021.2.3,61.3729905138725,
medium,1,0,5,5,5,5,0,5,0,,,,,,"['d', 'a']",229.33464708300016,230.39904749999914,231.83413279100023,"['d', 'a']","[1.0204560000001948, 1.1804852080003911]",243.66247891700004,244.94568887499918,1,,,,,,1,001,left,2022_Sep_14_1203,fingertaping-exp,2021.2.3,61.3729905138725,
medium,1,0,5,5,5,6,0,6,0,,,,,,"['a', 'f', 'd']",232.33461245800027,233.2488389579994,234.8326620409989,"['f', 'd', 'a']","[0.868322165999416, 0.868322165999416, 0.9162879579998844]",246.6626419589993,247.77959129199917,1,,,,,,1,001,left,2022_Sep_14_1203,fingertaping-exp,2021.2.3,61.3729905138725,
medium,1,0,5,5,5,7,0,7,0,,,,,,"['s', 'f']",235.30028166599914,236.16555095799959,237.8165415000003,"['s', 'f']","[0.8131992489998083, 0.8131992489998083]",249.6457443750005,250.69601516699913,1,,,,,,1,001,left,2022_Sep_14_1203,fingertaping-exp,2021.2.3,61.3729905138725,
medium,1,0,5,5,5,8,0,8,0,,,,,,"['f', 'a']",238.28254812500018,238.98284116600007,240.78580483299993,"['f', 'a']","[0.6283633749990258, 0.6283633749990258]",252.6306049169998,253.513523833999,1,,,,,,1,001,left,2022_Sep_14_1203,fingertaping-exp,2021.2.3,61.3729905138725,
medium,1,0,5,5,5,9,0,9,0,,,,,,"['s', 'a', 'd']",241.24953108299997,242.14897912500055,243.74989258300047,"['s', 'd', 'a']","[0.8631560409994563, 0.8631560409994563, 0.8631560409994563]",255.57989104199987,256.6795560419996,1,,,,,,1,001,left,2022_Sep_14_1203,fingertaping-exp,2021.2.3,61.3729905138725,
medium,1,0,5,5,5,,,,,0,0,0,0,,,,,,,,,,,100.0,medium,None,None,4.0,1,001,left,2022_Sep_14_1203,fingertaping-exp,2021.2.3,61.3729905138725,
medium,1,0,5,5,5,,,,,1,0,1,0,,,,,,,,,,,,,4.0,None,None,1,001,left,2022_Sep_14_1203,fingertaping-exp,2021.2.3,61.3729905138725,
medium,1,0,5,5,5,,,,,2,0,2,0,,,,,,,,,,,,,None,2.0,None,1,001,left,2022_Sep_14_1203,fingertaping-exp,2021.2.3,61.3729905138725,
medium,1,0,6,6,6,0,0,0,0,,,,,,"['f', 's', 'a']",253.0354884999997,254.46608333299992,255.55060012499962,"['s', 'f', 'a']","[1.3988959990001604, 1.4149242069997854, 1.4468902070002514]",267.36417441699996,269.01325225000073,1,,,,,,1,001,left,2022_Sep_14_1203,fingertaping-exp,2021.2.3,61.3729905138725,
medium,1,0,6,6,6,1,0,1,0,,,,,,"['a', 's', 'f']",255.96662029099934,256.83269741599906,258.46696599999996,"['s', 'f', 'a']","[0.8348475819984742, 0.8508699989997695, 0.8508699989997695]",270.2962427500006,271.3796419999999,1,,,,,,1,001,left,2022_Sep_14_1203,fingertaping-exp,2021.2.3,61.3729905138725,
medium,1,0,6,6,6,2,0,2,0,,,,,,"['f', 's']",258.88620295799956,259.66621508299977,261.4004384999989,"['s', 'f']","[0.7452489160004916, 0.7452489160004916]",273.21787012499954,274.1970029589993,1,,,,,,1,001,left,2022_Sep_14_1203,fingertaping-exp,2021.2.3,61.3729905138725,
medium,1,0,6,6,6,3,0,3,0,,,,,,"['f', 's']",261.86724937500003,262.73263074999886,264.38306516599914,"['s', 'f']","[0.8185096659999544, 0.8185096659999544]",276.2006170000004,277.27946924999924,1,,,,,,1,001,left,2022_Sep_14_1203,fingertaping-exp,2021.2.3,61.3729905138725,
medium,1,0,6,6,6,4,0,4,0,,,,,,"['a', 's', 'd']",264.8499159999992,265.6659096660005,267.3667937499995,"['s', 'd', 'a']","[0.7831076249985927, 0.7831076249985927, 0.7831076249985927]",279.18003899999894,280.196739125,1,,,,,,1,001,left,2022_Sep_14_1203,fingertaping-exp,2021.2.3,61.3729905138725,
medium,1,0,6,6,6,5,0,5,0,,,,,,"['s', 'f']",267.81727954099915,268.68328570799895,270.3172179579997,"['f', 's']","[0.8244405830009782, 0.9044134159994428]",282.1467472919994,283.2129641669999,1,,,,,,1,001,left,2022_Sep_14_1203,fingertaping-exp,2021.2.3,61.3729905138725,
medium,1,0,6,6,6,6,0,6,0,,,,,,"['f', 'a', 'd']",270.833285875,271.8834157910005,273.33275120799954,"['d', 'a']","[1.0087399570002162, 1.0087399570002162]",285.16244625000036,286.4296272089996,0,,,,,,1,001,left,2022_Sep_14_1203,fingertaping-exp,2021.2.3,61.3729905138725,
medium,1,0,6,6,6,7,0,7,0,,,,,,"['d', 'f', 'a']",273.8350175830001,274.9491536659989,276.3339777910005,"['f', 'd']","[1.0803564569996524, 1.0803564569996524]",288.1628592920006,289.47974445900036,0,,,,,,1,001,left,2022_Sep_14_1203,fingertaping-exp,2021.2.3,61.3729905138725,
medium,1,0,6,6,6,8,0,8,0,,,,,,"['s', 'a']",276.8173054580002,277.6833748749996,279.3338629579994,"['a', 's']","[0.8314685820005252, 0.8634770410008059]",291.1477617500004,292.21351108399904,1,,,,,,1,001,left,2022_Sep_14_1203,fingertaping-exp,2021.2.3,61.3729905138725,
medium,1,0,6,6,6,9,0,9,0,,,,,,"['f', 'd', 'a']",279.78436608300035,280.8492511660006,282.30033241599995,"['a', 'f', 'd']","[1.0328917909992015, 1.1129074580003362, 1.1129074580003362]",294.1143699999993,295.3796407919999,1,,,,,,1,001,left,2022_Sep_14_1203,fingertaping-exp,2021.2.3,61.3729905138725,
medium,1,0,6,6,6,,,,,0,0,0,0,,,,,,,,,,,80.0,medium,4.0,None,None,1,001,left,2022_Sep_14_1203,fingertaping-exp,2021.2.3,61.3729905138725,
medium,1,0,6,6,6,,,,,1,0,1,0,,,,,,,,,,,,,None,2.0,None,1,001,left,2022_Sep_14_1203,fingertaping-exp,2021.2.3,61.3729905138725,
medium,1,0,6,6,6,,,,,2,0,2,0,,,,,,,,,,,,,None,None,4.0,1,001,left,2022_Sep_14_1203,fingertaping-exp,2021.2.3,61.3729905138725,
medium,1,0,7,7,7,0,0,0,0,,,,,,"['d', 'a', 's']",290.83381308299977,291.6666844579995,293.33350091600005,"['a', 's', 'd']","[0.7841798749996087, 0.8162046249999548, 0.8162046249999548]",305.1631306670006,306.2140978749994,1,,,,,,1,001,left,2022_Sep_14_1203,fingertaping-exp,2021.2.3,61.3729905138725,
medium,1,0,7,7,7,1,0,1,0,,,,,,"['a', 'd']",293.78323049999926,294.6664735409995,296.28355366600044,"['a', 'd']","[0.8419387489993824, 0.889964248999604]",308.1133952090004,309.21334837500035,1,,,,,,1,001,left,2022_Sep_14_1203,fingertaping-exp,2021.2.3,61.3729905138725,
medium,1,0,7,7,7,2,0,2,0,,,,,,"['a', 'f', 's']",296.75025441599973,298.28342324999903,299.2498973749989,"['s', 'f', 'a']","[1.4910617069999716, 1.4910617069999716, 1.5070471660001203]",311.0803258340002,312.829667,1,,,,,,1,001,left,2022_Sep_14_1203,fingertaping-exp,2021.2.3,61.3729905138725,
medium,1,0,7,7,7,3,0,3,0,,,,,,"['f', 'a', 'd']",299.80036166599893,300.7663562910002,302.30126137499974,"['f', 'd', 'a']","[0.9214971250003146, 0.9214971250003146, 0.9214971250003146]",314.12989533399923,315.31340891699983,1,,,,,,1,001,left,2022_Sep_14_1203,fingertaping-exp,2021.2.3,61.3729905138725,
medium,1,0,7,7,7,4,0,4,0,,,,,,"['a', 's']",302.7167517500002,303.483646749999,305.2329403749991,"['a', 's']","[0.7088792070007912, 0.756871081999634]",317.06253358399954,318.0307496250007,1,,,,,,1,001,left,2022_Sep_14_1203,fingertaping-exp,2021.2.3,61.3729905138725,
medium,1,0,7,7,7,5,0,5,0,,,,,,"['s', 'f']",305.65048566599944,306.5328710829999,308.14988108299985,"['s', 'f']","[0.8476614989995142, 0.863661374000003]",319.97977700000047,321.0796527500006,1,,,,,,1,001,left,2022_Sep_14_1203,fingertaping-exp,2021.2.3,61.3729905138725,
medium,1,0,7,7,7,6,0,6,0,,,,,,"['a', 's', 'd']",308.6339244999999,309.39985887500006,311.13452524999957,"['a', 'd', 's']","[0.7118044580001879, 0.7598179579999851, 0.7758223330001783]",322.97963591699954,323.9302536670002,1,,,,,,1,001,left,2022_Sep_14_1203,fingertaping-exp,2021.2.3,61.3729905138725,
medium,1,0,7,7,7,7,0,7,0,,,,,,"['a', 's']",311.55074995799987,312.1331512500001,314.0509574579992,['s'],[0.5469486239999242],325.8805162089993,326.679803084,0,,,,,,1,001,left,2022_Sep_14_1203,fingertaping-exp,2021.2.3,61.3729905138725,
medium,1,0,7,7,7,8,0,8,0,,,,,,"['a', 'f']",314.50040854100007,315.26646983299906,317.00121320799917,"['a', 'f']","[0.7337781240003096, 0.84577120799986]",328.82970150000074,329.7969471670003,1,,,,,,1,001,left,2022_Sep_14_1203,fingertaping-exp,2021.2.3,61.3729905138725,
medium,1,0,7,7,7,9,0,9,0,,,,,,"['s', 'f', 'a']",317.4504697909997,318.54960916599885,319.9498620409995,"['a', 's', 'f']","[1.0629549990007945, 1.0789267079999263, 1.0789267079999263]",331.780563667,333.0807578749991,1,,,,,,1,001,left,2022_Sep_14_1203,fingertaping-exp,2021.2.3,61.3729905138725,
medium,1,0,7,7,7,,,,,0,0,0,0,,,,,,,,,,,90.0,medium,4.0,None,None,1,001,left,2022_Sep_14_1203,fingertaping-exp,2021.2.3,61.3729905138725,
medium,1,0,7,7,7,,,,,1,0,1,0,,,,,,,,,,,,,None,None,2.0,1,001,left,2022_Sep_14_1203,fingertaping-exp,2021.2.3,61.3729905138725,
medium,1,0,7,7,7,,,,,2,0,2,0,,,,,,,,,,,,,None,2.0,None,1,001,left,2022_Sep_14_1203,fingertaping-exp,2021.2.3,61.3729905138725,
medium,1,0,8,8,8,0,0,0,0,,,,,,"['s', 'a']",328.75060729100005,329.54988316599884,331.2510052079997,"['a', 's']","[0.7548321240010409, 0.7708611660000315]",343.0807356669993,344.0971558750007,1,,,,,,1,001,left,2022_Sep_14_1203,fingertaping-exp,2021.2.3,61.3729905138725,
medium,1,0,8,8,8,1,0,1,0,,,,,,"['d', 's', 'f']",331.68432420799945,332.46651379099967,334.2010371659999,"['d', 'f', 's']","[0.7328545830005169, 0.7808479579998675, 0.8608919159996731]",346.0147345839996,346.9974332919992,1,,,,,,1,001,left,2022_Sep_14_1203,fingertaping-exp,2021.2.3,61.3729905138725,
medium,1,0,8,8,8,2,0,2,0,,,,,,"['d', 'f']",334.7011291250001,335.4497403330006,337.20237712500057,"['f', 'd']","[0.709577415998865, 0.709577415998865]",349.03004862499984,349.9801809170003,1,,,,,,1,001,left,2022_Sep_14_1203,fingertaping-exp,2021.2.3,61.3729905138725,
medium,1,0,8,8,8,3,0,3,0,,,,,,"['a', 's']",337.7181610409989,338.43306637500064,340.2174237500003,"['a', 's']","[0.6683648739999626, 0.7003782490010053]",352.0472618339991,352.96343320899905,1,,,,,,1,001,left,2022_Sep_14_1203,fingertaping-exp,2021.2.3,61.3729905138725,
medium,1,0,8,8,8,4,0,4,0,,,,,,"['s', 'f', 'a']",340.66705004100004,342.2835491249989,343.1674493749997,"['s', 'f', 'a']","[1.5718710820001434, 1.5718710820001434, 1.5718710820001434]",354.99977899999976,356.83008362500004,1,,,,,,1,001,left,2022_Sep_14_1203,fingertaping-exp,2021.2.3,61.3729905138725,
medium,1,0,8,8,8,5,0,5,0,,,,,,"['a', 'd']",343.65084320799906,345.083639208,346.16735083300046,"['d', 'a']","[1.3742559160000383, 1.3742559160000383]",357.9974314589999,359.61341179199917,1,,,,,,1,001,left,2022_Sep_14_1203,fingertaping-exp,2021.2.3,61.3729905138725,
medium,1,0,8,8,8,6,0,6,0,,,,,,"['s', 'f', 'd']",346.6171815830003,347.4667296659991,349.117576749999,"['f', 'd', 's']","[0.7925610820002476, 0.7925610820002476, 0.808582916000887]",360.96311558399975,361.997676084,1,,,,,,1,001,left,2022_Sep_14_1203,fingertaping-exp,2021.2.3,61.3729905138725,
medium,1,0,8,8,8,7,0,7,0,,,,,,"['f', 'a']",349.534082958,350.4172665410006,352.0336257079998,"['f', 'a']","[0.8362626240013924, 0.8362626240013924]",363.86343804199896,364.9471816669993,1,,,,,,1,001,left,2022_Sep_14_1203,fingertaping-exp,2021.2.3,61.3729905138725,
medium,1,0,8,8,8,8,0,8,0,,,,,,"['f', 'a']",352.56778754100014,353.3495222500005,355.0838530410001,"['f', 'a']","[0.7283406250007829, 0.7283406250007829]",366.89940274999935,367.8802159169991,1,,,,,,1,001,left,2022_Sep_14_1203,fingertaping-exp,2021.2.3,61.3729905138725,
medium,1,0,8,8,8,9,0,9,0,,,,,,"['d', 'a']",355.5173305829994,356.4838552910005,358.0183204999994,"['d', 'a']","[0.9330433329996595, 0.9490457079991756]",369.8466881250006,371.01396399999976,1,,,,,,1,001,left,2022_Sep_14_1203,fingertaping-exp,2021.2.3,61.3729905138725,
medium,1,0,8,8,8,,,,,0,0,0,0,,,,,,,,,,,100.0,medium,None,None,3.0,1,001,left,2022_Sep_14_1203,fingertaping-exp,2021.2.3,61.3729905138725,
medium,1,0,8,8,8,,,,,1,0,1,0,,,,,,,,,,,,,None,2.0,None,1,001,left,2022_Sep_14_1203,fingertaping-exp,2021.2.3,61.3729905138725,
medium,1,0,8,8,8,,,,,2,0,2,0,,,,,,,,,,,,,3.0,None,None,1,001,left,2022_Sep_14_1203,fingertaping-exp,2021.2.3,61.3729905138725,
medium,1,0,9,9,9,0,0,0,0,,,,,,"['d', 's', 'a']",367.96861658299895,368.7843531660001,370.4681375,"['a', 's', 'd']","[0.770199707001666, 0.8021959160014376, 0.8021959160014376]",382.29763037500015,383.3309957090005,1,,,,,,1,001,left,2022_Sep_14_1203,fingertaping-exp,2021.2.3,61.3729905138725,
medium,1,0,9,9,9,1,0,1,0,,,,,,"['d', 'f', 's']",370.90152441600003,371.5843501250001,373.40185666599973,"['d', 's', 'f']","[0.6376975820003281, 0.7016737909998483, 0.7176784160001262]",385.230194374999,386.11444145899986,1,,,,,,1,001,left,2022_Sep_14_1203,fingertaping-exp,2021.2.3,61.3729905138725,
medium,1,0,9,9,9,2,0,2,0,,,,,,"['d', 'a', 's']",373.8343735409999,374.3332871250004,376.3339657079996,"['a', 's', 'd']","[0.4561686239994742, 0.4881779990009818, 0.4881779990009818]",388.1636859169994,388.86361987499913,1,,,,,,1,001,left,2022_Sep_14_1203,fingertaping-exp,2021.2.3,61.3729905138725,
medium,1,0,9,9,9,3,0,3,0,,,,,,"['d', 's']",376.80114995799886,377.6166152499991,379.30158720799955,"['s', 'd']","[0.7695180410009925, 0.7695180410009925]",391.1303495840002,392.1469727500007,1,,,,,,1,001,left,2022_Sep_14_1203,fingertaping-exp,2021.2.3,61.3729905138725,
medium,1,0,9,9,9,4,0,4,0,,,,,,"['f', 's', 'a']",379.7342254159994,381.0336395409995,382.2336776659995,"['f', 's', 'a']","[1.2601210410011845, 1.2761499990010634, 1.2761499990010634]",394.06378416699954,395.580569709,1,,,,,,1,001,left,2022_Sep_14_1203,fingertaping-exp,2021.2.3,61.3729905138725,
medium,1,0,9,9,9,5,0,5,0,,,,,,"['f', 's']",382.7012748750003,383.5334206659991,385.200332082999,"['f', 's']","[0.7890667490009946, 0.805095916000937]",397.03084791699985,398.06353270900036,1,,,,,,1,001,left,2022_Sep_14_1203,fingertaping-exp,2021.2.3,61.3729905138725,
medium,1,0,9,9,9,6,0,6,0,,,,,,"['f', 'd', 'a']",385.668032915999,386.81729804099996,388.1845974579992,"['f', 'd', 'a']","[1.099969165999937, 1.099969165999937, 1.099969165999937]",399.9999814589992,401.3469355420002,1,,,,,,1,001,left,2022_Sep_14_1203,fingertaping-exp,2021.2.3,61.3729905138725,
medium,1,0,9,9,9,7,0,7,0,,,,,,"['d', 'a']",388.66823516600016,389.51697624999906,391.16736054099965,"['a', 'd']","[0.8061025820006762, 0.8220746660008444]",402.9978787500004,404.04703487500046,1,,,,,,1,001,left,2022_Sep_14_1203,fingertaping-exp,2021.2.3,61.3729905138725,
medium,1,0,9,9,9,8,0,8,0,,,,,,"['a', 's', 'f']",391.6023767909992,393.1339790000002,394.1012809999993,"['s', 'a', 'f']","[1.4893539989989222, 1.4893539989989222, 1.5213611660001334]",405.9306334590001,407.6805910839994,1,,,,,,1,001,left,2022_Sep_14_1203,fingertaping-exp,2021.2.3,61.3729905138725,
medium,1,0,9,9,9,9,0,9,0,,,,,,"['a', 'd']",394.65168124999946,395.700430375,397.16737791599917,"['d', 'a']","[1.0140918749984849, 1.11008183299964]",408.98190975000034,410.24722549999933,1,,,,,,1,001,left,2022_Sep_14_1203,fingertaping-exp,2021.2.3,61.3729905138725,
medium,1,0,9,9,9,,,,,0,0,0,0,,,,,,,,,,,100.0,medium,3.0,None,None,1,001,left,2022_Sep_14_1203,fingertaping-exp,2021.2.3,61.3729905138725,
medium,1,0,9,9,9,,,,,1,0,1,0,,,,,,,,,,,,,None,2.0,None,1,001,left,2022_Sep_14_1203,fingertaping-exp,2021.2.3,61.3729905138725,
medium,1,0,9,9,9,,,,,2,0,2,0,,,,,,,,,,,,,None,None,3.0,1,001,left,2022_Sep_14_1203,fingertaping-exp,2021.2.3,61.3729905138725,
high,1,0,10,10,10,0,0,0,0,,,,,,"['f', 'd', 'k', 'l']",407.5877959999998,408.3006150410001,410.10176766599943,"['f', 'd']","[0.6683515829990938, 0.6683515829990938]",421.91973700000017,422.8318485839991,0,,,,,,1,001,left,2022_Sep_14_1203,fingertaping-exp,2021.2.3,61.3729905138725,
high,1,0,10,10,10,1,0,1,0,,,,,,"['a', 's', 'd', 'semicolon', 'j', 'k']",410.53451745799975,412.78427770800045,413.03412391599886,"['a', 'k', 's', 'j', 'd', 'semicolon']","[2.204244081998695, 2.2522712069985573, 2.3162919569986116, 2.3162919569986116, 2.3162919569986116, 2.3962911239996174]",424.86385583399897,427.3150083340006,1,,,,,,1,001,left,2022_Sep_14_1203,fingertaping-exp,2021.2.3,61.3729905138725,
high,1,0,10,10,10,2,0,2,0,,,,,,"['a', 's', 'l', 'semicolon']",413.48479083299935,414.59999516599964,415.98410379099914,"['a', 'l', 's', 'semicolon']","[1.077954915999726, 1.093962498998735, 1.1099511659995187, 1.1259753739996086]",427.8141664169998,429.1305661669994,1,,,,,,1,001,left,2022_Sep_14_1203,fingertaping-exp,2021.2.3,61.3729905138725,
high,1,0,10,10,10,3,0,3,0,,,,,,"['s', 'f', 'semicolon', 'l', 'j']",416.45075545799955,418.11706137500005,418.95048708300055,"['f', 's', 'j', 'l', 'semicolon']","[1.631531832001201, 1.6635787070008519, 1.6635787070008519, 1.6635787070008519, 1.7115377909995004]",430.78061349999916,432.6472022500002,1,,,,,,1,001,left,2022_Sep_14_1203,fingertaping-exp,2021.2.3,61.3729905138725,
high,1,0,10,10,10,4,0,4,0,,,,,,"['d', 's', 'f', 'l', 'j', 'semicolon']",419.41798050000034,421.2000017909995,421.91708758300047,"['d', 'f', 's', 'j', 'l', 'semicolon']","[1.7372229160009738, 1.753175290999934, 1.769176540999979, 1.8011493750000227, 1.8171843330001138, 1.9131608750012674]",433.74700733399914,435.73044620899964,1,,,,,,1,001,left,2022_Sep_14_1203,fingertaping-exp,2021.2.3,61.3729905138725,
high,1,0,10,10,10,5,0,5,0,,,,,,"['s', 'f', 'd', 'j', 'semicolon', 'k']",422.35066070799985,424.1502571250003,424.8509257499991,"['k', 'k']","[1.7638901250011259, 1.9238827499993931]",436.6803127919993,438.68026170899975,0,,,,,,1,001,left,2022_Sep_14_1203,fingertaping-exp,2021.2.3,61.3729905138725,
high,1,0,10,10,10,6,0,6,0,,,,,,"['a', 'f', 'd', 'k', 'j']",425.3344435409999,427.4170034580002,427.8509198749998,"['f', 'd', 'a', 'j', 'k']","[2.02827941599935, 2.02827941599935, 2.02827941599935, 2.0762874989995908, 2.0762874989995908]",439.67991491700013,441.9473152499995,1,,,,,,1,001,left,2022_Sep_14_1203,fingertaping-exp,2021.2.3,61.3729905138725,
high,1,0,10,10,10,7,0,7,0,,,,,,"['s', 'd', 'a', 'j', 'l']",428.33558004099905,430.75015712499953,430.85038916600024,"['l', 's', 'j', 'd']","[2.369708748999983, 2.4177552909986844, 2.4177552909986844, 2.4336378739990323]",442.66658833399924,None,0,,,,,,1,001,left,2022_Sep_14_1203,fingertaping-exp,2021.2.3,61.3729905138725,
high,1,0,10,10,10,8,0,8,0,,,,,,"['f', 'a', 'j', 'k', 'l']",431.33440195799994,433.0334974159996,433.8338226249998,"['a', 'f', 'j', 'k', 'l']","[1.6605321659990295, 1.7085357910000312, 1.7405249989988079, 1.7405249989988079, 1.7405249989988079]",445.66373362500053,447.5838688339991,1,,,,,,1,001,left,2022_Sep_14_1203,fingertaping-exp,2021.2.3,61.3729905138725,
high,1,0,10,10,10,9,0,9,0,,,,,,"['f', 'a', 'j', 'semicolon', 'k']",434.26773545799915,435.9504804999997,436.7675921249993,"['f', 'j', 'a', 'k']","[1.6382491660006053, 1.6382491660006053, 1.6382491660006053, 1.6542498740000156]",448.5980342919993,450.49755595900024,0,,,,,,1,001,left,2022_Sep_14_1203,fingertaping-exp,2021.2.3,61.3729905138725,
high,1,0,10,10,10,,,,,0,0,0,0,,,,,,,,,,,60.0,high,4.0,None,None,1,001,left,2022_Sep_14_1203,fingertaping-exp,2021.2.3,61.3729905138725,
high,1,0,10,10,10,,,,,1,0,1,0,,,,,,,,,,,,,None,3.0,None,1,001,left,2022_Sep_14_1203,fingertaping-exp,2021.2.3,61.3729905138725,
high,1,0,10,10,10,,,,,2,0,2,0,,,,,,,,,,,,,None,None,4.0,1,001,left,2022_Sep_14_1203,fingertaping-exp,2021.2.3,61.3729905138725,
high,1,0,11,11,11,0,0,0,0,,,,,,"['d', 'f', 'k', 'j']",455.88512754099975,456.7341501659994,458.3856784159998,"['f', 'd', 'j', 'k']","[0.8056618330010679, 0.8056618330010679, 0.821679041000607, 0.821679041000607]",470.2147384590007,471.2652121249994,1,,,,,,1,001,left,2022_Sep_14_1203,fingertaping-exp,2021.2.3,61.3729905138725,
high,1,0,11,11,11,1,0,1,0,,,,,,"['s', 'a', 'd', 'j', 'semicolon']",458.83502954100004,460.7845980000002,461.3349888749999,"['a', 'semicolon', 'j', 'd', 's']","[1.9040048329989077, 1.9360065829987434, 1.9360065829987434, 1.9360065829987434, 1.968005249998896]",473.1644439169995,475.33091066700035,1,,,,,,1,001,left,2022_Sep_14_1203,fingertaping-exp,2021.2.3,61.3729905138725,
high,1,0,11,11,11,2,0,2,0,,,,,,"['s', 'd', 'semicolon', 'j', 'l']",461.8350697499991,463.8340523329989,464.3347267499994,"['s', 'j', 'd', 'l', 'semicolon']","[1.9593942909996258, 1.9593942909996258, 1.9593942909996258, 1.9754002489989944, 2.071395790999304]",476.16506058400046,478.3816231670007,1,,,,,,1,001,left,2022_Sep_14_1203,fingertaping-exp,2021.2.3,61.3729905138725,
high,1,0,11,11,11,3,0,3,0,,,,,,"['s', 'a', 'd', 'k', 'l']",464.835025458,466.3854291659991,467.3341029160001,"['a', 'k', 'l', 'd', 's']","[1.5035356659991521, 1.535543540998333, 1.535543540998333, 1.535543540998333, 1.5515491659989493]",479.16491566699915,480.93050020900046,1,,,,,,1,001,left,2022_Sep_14_1203,fingertaping-exp,2021.2.3,61.3729905138725,
high,1,0,11,11,11,4,0,4,0,,,,,,"['d', 'f', 's', 'l', 'k', 'semicolon']",467.78525320799963,469.95061520799936,470.28498095800023,"['semicolon', 's', 'f', 'k', 'l', 'd']","[2.1223329580006975, 2.1223329580006975, 2.1223329580006975, 2.1223329580006975, 2.1223329580006975, 2.1223329580006975]",482.11457116699967,484.4976471249993,1,,,,,,1,001,left,2022_Sep_14_1203,fingertaping-exp,2021.2.3,61.3729905138725,
high,1,0,11,11,11,5,0,5,0,,,,,,"['f', 'a', 's', 'l', 'j']",470.71758758299984,473.1339843749993,473.21808845799933,"['s', 'a', 'f', 'l', 'j']","[2.372720457999094, 2.3887423739997757, 2.404736373999185, 2.420733916000245, 2.4367539579998265]",485.04778733400053,None,1,,,,,,1,001,left,2022_Sep_14_1203,fingertaping-exp,2021.2.3,61.3729905138725,
high,1,0,11,11,11,6,0,6,0,,,,,,"['d', 'a', 'k', 'j', 'semicolon']",473.752490375,,476.2682534579999,None,,488.0815572089996,None,0,,,,,,1,001,left,2022_Sep_14_1203,fingertaping-exp,2021.2.3,61.3729905138725,
high,1,0,11,11,11,7,0,7,0,,,,,,"['d', 'a', 'j', 'l']",476.7017557500003,478.61718483299956,479.2173846249989,"['f', 'j', 'l', 'a']","[1.8617323329999635, 1.8617323329999635, 1.8617323329999635, 1.8617323329999635]",491.04681037499904,493.1638410840005,0,,,,,,1,001,left,2022_Sep_14_1203,fingertaping-exp,2021.2.3,61.3729905138725,
high,1,0,11,11,11,8,0,8,0,,,,,,"['f', 'a', 'j', 'k']",479.75170049999906,481.2680157499999,482.27132004099985,"['f', 'j', 'k', 'a']","[1.4636051249999582, 1.4636051249999582, 1.4636051249999582, 1.4636051249999582]",494.0849653339992,495.79831245899913,1,,,,,,1,001,left,2022_Sep_14_1203,fingertaping-exp,2021.2.3,61.3729905138725,
high,1,0,11,11,11,9,0,9,0,,,,,,"['f', 'd', 'k', 'semicolon']",482.68513625000014,484.88481150000007,485.1855712910001,"['f', 'j', 'k', 'd']","[2.1505736660001276, 2.1505736660001276, 2.1505736660001276, 2.1505736660001276]",497.0140193339994,499.43079933399895,0,,,,,,1,001,left,2022_Sep_14_1203,fingertaping-exp,2021.2.3,61.3729905138725,
high,1,0,11,11,11,,,,,0,0,0,0,,,,,,,,,,,70.0,high,None,4.0,None,1,001,left,2022_Sep_14_1203,fingertaping-exp,2021.2.3,61.3729905138725,
high,1,0,11,11,11,,,,,1,0,1,0,,,,,,,,,,,,,None,None,4.0,1,001,left,2022_Sep_14_1203,fingertaping-exp,2021.2.3,61.3729905138725,
high,1,0,11,11,11,,,,,2,0,2,0,,,,,,,,,,,,,3.0,None,None,1,001,left,2022_Sep_14_1203,fingertaping-exp,2021.2.3,61.3729905138725,
high,1,0,12,12,12,0,0,0,0,,,,,,"['s', 'f', 'k', 'j', 'l']",502.00128341599884,503.668688415999,504.5179798749996,"['s', 'f', 'j', 'k', 'l']","[1.6151536659999692, 1.6151536659999692, 1.6151536659999692, 1.6151536659999692, 1.6151536659999692]",516.3335647919994,518.2156119169995,1,,,,,,1,001,left,2022_Sep_14_1203,fingertaping-exp,2021.2.3,61.3729905138725,
high,1,0,12,12,12,1,0,1,0,,,,,,"['a', 'd', 'l', 'k', 'j']",504.9855765409993,506.917605749999,507.4858653329993,"['a', 'd', 'j', 'k', 'l']","[1.8976579160007532, 1.9297148330006166, 1.9776714990002802, 1.9776714990002802, 1.9936862490012572]",519.3150600839999,521.4650542090003,1,,,,,,1,001,left,2022_Sep_14_1203,fingertaping-exp,2021.2.3,61.3729905138725,
high,1,0,12,12,12,2,0,2,0,,,,,,"['a', 's', 'l', 'j']",507.9708616659991,,510.48449083299965,None,,522.2985664589996,None,0,,,,,,1,001,left,2022_Sep_14_1203,fingertaping-exp,2021.2.3,61.3729905138725,
high,1,0,12,12,12,3,0,3,0,,,,,,"['a', 's', 'd', 'j', 'k']",510.98556350000035,512.7007712499999,513.4878417910004,"['a', 'j', 'k', 'd']","[1.673864248999962, 1.7378502909996314, 1.7378502909996314, 1.7378502909996314]",525.3149240420007,527.2476690839994,0,,,,,,1,001,left,2022_Sep_14_1203,fingertaping-exp,2021.2.3,61.3729905138725,
high,1,0,12,12,12,4,0,4,0,,,,,,"['a', 's', 'f', 'semicolon', 'j']",514.0017369159996,515.2686095829995,516.5019567079999,['s'],[1.2177253750014643],528.3310649169998,529.8151348749998,0,,,,,,1,001,left,2022_Sep_14_1203,fingertaping-exp,2021.2.3,61.3729905138725,
high,1,0,12,12,12,5,0,5,0,,,,,,"['d', 'a', 's', 'j', 'k']",517.0016585409994,519.1685329159991,519.5019239579997,"['a', 'j', 'k', 'd', 's']","[2.1216692910002166, 2.297700249000627, 2.297700249000627, 2.297700249000627, 2.3136858739999298]",531.3311439999998,533.7143789999991,1,,,,,,1,001,left,2022_Sep_14_1203,fingertaping-exp,2021.2.3,61.3729905138725,
high,1,0,12,12,12,6,0,6,0,,,,,,"['a', 's', 'l', 'j']",519.918188915999,521.7176464160002,522.4178210829996,"['a', 'j', 'l', 's']","[1.7647163740002725, 1.7967293319998134, 1.7967293319998134, 1.8287422909997986]",534.248086874999,536.2482900840005,1,,,,,,1,001,left,2022_Sep_14_1203,fingertaping-exp,2021.2.3,61.3729905138725,
high,1,0,12,12,12,7,0,7,0,,,,,,"['d', 's', 'k', 'j']",522.8708281250001,524.4677817909997,525.3685223749999,"['s', 'j', 'k', 'd']","[1.56657604099928, 1.56657604099928, 1.56657604099928, 1.56657604099928]",537.1982701670004,539.014416209,1,,,,,,1,001,left,2022_Sep_14_1203,fingertaping-exp,2021.2.3,61.3729905138725,
high,1,0,12,12,12,8,0,8,0,,,,,,"['s', 'd', 'semicolon', 'k']",525.8350668330004,528.1180046659993,528.3344610000004,"['s', 'k', 'd', 'semicolon']","[2.2480928740005766, 2.2480928740005766, 2.2480928740005766, 2.264098331999776]",540.1647754999995,None,1,,,,,,1,001,left,2022_Sep_14_1203,fingertaping-exp,2021.2.3,61.3729905138725,
high,1,0,12,12,12,9,0,9,0,,,,,,"['d', 's', 'f', 'semicolon', 'j']",528.8183032500001,530.7682460830001,531.3177273749989,"['semicolon', 's', 'f', 'j', 'd']","[1.9050989579991437, 1.9050989579991437, 1.9050989579991437, 1.9050989579991437, 1.9050989579991437]",543.1477919589997,545.3012225000002,1,,,,,,1,001,left,2022_Sep_14_1203,fingertaping-exp,2021.2.3,61.3729905138725,
high,1,0,12,12,12,,,,,0,0,0,0,,,,,,,,,,,70.0,high,None,None,4.0,1,001,left,2022_Sep_14_1203,fingertaping-exp,2021.2.3,61.3729905138725,
high,1,0,12,12,12,,,,,1,0,1,0,,,,,,,,,,,,,None,4.0,None,1,001,left,2022_Sep_14_1203,fingertaping-exp,2021.2.3,61.3729905138725,
high,1,0,12,12,12,,,,,2,0,2,0,,,,,,,,,,,,,4.0,None,None,1,001,left,2022_Sep_14_1203,fingertaping-exp,2021.2.3,61.3729905138725,
high,1,0,13,13,13,0,0,0,0,,,,,,"['s', 'a', 'f', 'semicolon', 'j']",540.4520441250006,542.5850194579998,542.9520847499989,"['semicolon', 's', 'f', 'j', 'a']","[2.095440333001534, 2.111446541000987, 2.111446541000987, 2.111446541000987, 2.1434292500016454]",554.781531958999,557.114787167,1,,,,,,1,001,left,2022_Sep_14_1203,fingertaping-exp,2021.2.3,61.3729905138725,
high,1,0,13,13,13,1,0,1,0,,,,,,"['a', 'f', 's', 'j', 'l']",543.4684984579999,545.2683399159996,545.9687137500005,"['f', 'j', 'a', 'l', 's']","[1.7506450820001191, 1.7506450820001191, 1.7506450820001191, 1.7666350819999934, 1.8467188319991692]",557.7983551670004,559.8148463750003,1,,,,,,1,001,left,2022_Sep_14_1203,fingertaping-exp,2021.2.3,61.3729905138725,
high,1,0,13,13,13,2,0,2,0,,,,,,"['s', 'd', 'semicolon', 'j', 'k']",546.5021092499992,547.9853011659998,549.0018236659998,['s'],[1.4374914159998298],560.8314972499993,562.5154649590004,0,,,,,,1,001,left,2022_Sep_14_1203,fingertaping-exp,2021.2.3,61.3729905138725,
high,1,0,13,13,13,3,0,3,0,,,,,,"['s', 'd', 'semicolon', 'l']",549.4351743329989,550.8755068749997,551.9348266659999,"['l', 's', 'd']","[1.3842111239991937, 1.4002112910002324, 1.4002112910002324]",563.7648180840006,565.4161100000001,0,,,,,,1,001,left,2022_Sep_14_1203,fingertaping-exp,2021.2.3,61.3729905138725,
high,1,0,13,13,13,4,0,4,0,,,,,,"['f', 'd', 'k', 'semicolon', 'l']",552.3521557080003,554.4685020409997,554.8524129580001,"['f', 'k', 'l', 'd', 'semicolon']","[2.080239500000971, 2.080239500000971, 2.080239500000971, 2.080239500000971, 2.144332249999934]",566.6848046670002,569.0145834590003,1,,,,,,1,001,left,2022_Sep_14_1203,fingertaping-exp,2021.2.3,61.3729905138725,
high,1,0,13,13,13,5,0,5,0,,,,,,"['d', 's', 'f', 'l', 'k']",555.252543999999,556.9012424159991,557.7514442909996,"['f', 'k', 'l', 'd', 's']","[1.6148586250001244, 1.6148586250001244, 1.6148586250001244, 1.6148586250001244, 1.6308790829989448]",569.5821749999996,571.4480494590007,1,,,,,,1,001,left,2022_Sep_14_1203,fingertaping-exp,2021.2.3,61.3729905138725,
high,1,0,13,13,13,6,0,6,0,,,,,,"['a', 'f', 'd', 'j', 'l']",558.1864593749997,560.184638540999,560.6850555830006,"['a', 'f', 'j', 'l']","[1.962461125000118, 1.9785109580006974, 1.9785109580006974, 1.9785109580006974]",572.5146017499992,574.7159972089994,0,,,,,,1,001,left,2022_Sep_14_1203,fingertaping-exp,2021.2.3,61.3729905138725,
high,1,0,13,13,13,7,0,7,0,,,,,,"['a', 'f', 'd', 'k', 'semicolon']",561.1352232079989,,563.6513419999992,None,,575.4650397919995,None,0,,,,,,1,001,left,2022_Sep_14_1203,fingertaping-exp,2021.2.3,61.3729905138725,
high,1,0,13,13,13,8,0,8,0,,,,,,"['f', 'a', 'j', 'k', 'semicolon']",564.0856828329997,566.0344642910004,566.5865764159989,"['a', 'f', 'k', 'j']","[1.9020615410008759, 1.9340609580012824, 1.9340609580012824, 1.950061999999889]",578.4150420419992,580.5815557499991,0,,,,,,1,001,left,2022_Sep_14_1203,fingertaping-exp,2021.2.3,61.3729905138725,
high,1,0,13,13,13,9,0,9,0,,,,,,"['s', 'a', 'f', 'semicolon', 'j', 'l']",567.0685653750006,,569.5692789579989,None,,581.3989421249989,None,0,,,,,,1,001,left,2022_Sep_14_1203,fingertaping-exp,2021.2.3,61.3729905138725,
high,1,0,13,13,13,,,,,0,0,0,0,,,,,,,,,,,40.0,high,None,4.0,None,1,001,left,2022_Sep_14_1203,fingertaping-exp,2021.2.3,61.3729905138725,
high,1,0,13,13,13,,,,,1,0,1,0,,,,,,,,,,,,,4.0,None,None,1,001,left,2022_Sep_14_1203,fingertaping-exp,2021.2.3,61.3729905138725,
high,1,0,13,13,13,,,,,2,0,2,0,,,,,,,,,,,,,None,None,3.0,1,001,left,2022_Sep_14_1203,fingertaping-exp,2021.2.3,61.3729905138725,
high,1,0,14,14,14,0,0,0,0,,,,,,"['d', 'f', 'k', 'l', 'j']",578.0364309159995,579.7348507499992,580.5349392909993,"['f', 'j', 'k', 'l', 'd']","[1.6638554990004195, 1.6958054570004606, 1.6958054570004606, 1.6958054570004606, 1.6958054570004606]",592.3654123750002,594.2817472089991,1,,,,,,1,001,left,2022_Sep_14_1203,fingertaping-exp,2021.2.3,61.3729905138725,
high,1,0,14,14,14,1,0,1,0,,,,,,"['s', 'd', 'j', 'semicolon']",580.985617458,582.8180637080004,583.4857389999997,"['semicolon', 's', 'j', 'd']","[1.786302833001173, 1.786302833001173, 1.786302833001173, 1.786302833001173]",595.3149470839999,597.3650212920002,1,,,,,,1,001,left,2022_Sep_14_1203,fingertaping-exp,2021.2.3,61.3729905138725,
high,1,0,14,14,14,2,0,2,0,,,,,,"['a', 'd', 'k', 'semicolon', 'l']",583.9030266659993,585.8682642080003,586.4028792909994,"['a', 'k', 'd', 'semicolon', 'l']","[1.925577500000145, 1.9575592080000206, 1.9575592080000206, 1.973569290999876, 1.973569290999876]",598.2316879169994,600.3995599589998,1,,,,,,1,001,left,2022_Sep_14_1203,fingertaping-exp,2021.2.3,61.3729905138725,
high,1,0,14,14,14,3,0,3,0,,,,,,"['a', 's', 'd', 'k', 'l']",586.9356897910002,588.4684222079995,589.4352801659988,"['k', 'l', 'd', 'a', 's']","[1.499958415999572, 1.499958415999572, 1.499958415999572, 1.499958415999572, 1.5159624160005478]",601.2653058340002,602.9982141670007,1,,,,,,1,001,left,2022_Sep_14_1203,fingertaping-exp,2021.2.3,61.3729905138725,
high,1,0,14,14,14,4,0,4,0,,,,,,"['f', 's', 'k', 'semicolon', 'j']",589.9356667909997,591.8514421660002,592.4355862079992,"['s', 'f', 'j', 'k', 'semicolon']","[1.8760222500004602, 1.8760222500004602, 1.8760222500004602, 1.8760222500004602, 1.940031165999244]",604.2652774590006,606.3818739590006,1,,,,,,1,001,left,2022_Sep_14_1203,fingertaping-exp,2021.2.3,61.3729905138725,
high,1,0,14,14,14,5,0,5,0,,,,,,"['s', 'a', 'f', 'k', 'semicolon']",592.9710789580004,,595.4865581249996,None,,607.2984779590006,None,0,,,,,,1,001,left,2022_Sep_14_1203,fingertaping-exp,2021.2.3,61.3729905138725,
high,1,0,14,14,14,6,0,6,0,,,,,,"['s', 'f', 'j', 'semicolon', 'k']",596.0026588330002,598.0683733749993,598.5016136659997,"['semicolon', 's', 'f', 'j', 'k']","[2.0177999989991804, 2.0177999989991804, 2.0177999989991804, 2.0177999989991804, 2.0177999989991804]",610.3315215000002,612.5990827919995,1,,,,,,1,001,left,2022_Sep_14_1203,fingertaping-exp,2021.2.3,61.3729905138725,
high,1,0,14,14,14,7,0,7,0,,,,,,"['s', 'f', 'k', 'l']",598.9520499999999,601.2689475409989,601.4686120410006,"['s', 'k', 'l', 'f']","[2.282622999000523, 2.282622999000523, 2.282622999000523, 2.2986129580003762]",613.2827292090005,None,1,,,,,,1,001,left,2022_Sep_14_1203,fingertaping-exp,2021.2.3,61.3729905138725,
high,1,0,14,14,14,8,0,8,0,,,,,,"['s', 'f', 'k', 'semicolon', 'j']",601.9519175410005,,604.4523037079998,None,,616.2828125420001,None,0,,,,,,1,001,left,2022_Sep_14_1203,fingertaping-exp,2021.2.3,61.3729905138725,
high,1,0,14,14,14,9,0,9,0,,,,,,"['a', 'd', 'k', 'l', 'semicolon']",605.0189009999995,606.8028417080004,607.5187561250004,['d'],[1.736917791000451],619.3484511669994,621.3488372920001,0,,,,,,1,001,left,2022_Sep_14_1203,fingertaping-exp,2021.2.3,61.3729905138725,
high,1,0,14,14,14,,,,,0,0,0,0,,,,,,,,,,,70.0,high,None,4.0,None,1,001,left,2022_Sep_14_1203,fingertaping-exp,2021.2.3,61.3729905138725,
high,1,0,14,14,14,,,,,1,0,1,0,,,,,,,,,,,,,None,None,2.0,1,001,left,2022_Sep_14_1203,fingertaping-exp,2021.2.3,61.3729905138725,
high,1,0,14,14,14,,,,,2,0,2,0,,,,,,,,,,,,,3.0,None,None,1,001,left,2022_Sep_14_1203,fingertaping-exp,2021.2.3,61.3729905138725,
